time_us,ax,ay,az,gx,gy,gz
0,0.536301,0.186748,11.087548,2.438623,-1.898377,-1.095922
4000,0.620098,0.205901,11.164163,2.972974,-1.852576,-1.492869
8000,0.581791,0.229843,11.149797,3.110379,-2.661736,-2.042487
12000,0.548272,0.117316,11.216835,3.415722,-4.325858,-2.515770
16000,0.519542,0.174777,11.125855,3.950073,-5.822041,-2.943251
20000,0.593762,0.136469,11.128249,4.224883,-6.783873,-3.172258
24000,0.610521,0.098162,10.967838,4.484425,-7.562499,-3.844014
28000,0.409408,0.083797,10.955867,4.377554,-8.020514,-4.149358
32000,0.330400,0.105345,10.826580,3.889004,-8.142652,-4.088289
36000,0.287304,0.155623,10.943896,3.400455,-8.005247,-3.935617
40000,0.356736,0.141258,10.862494,3.003508,-6.661736,-4.240961
44000,0.258574,0.160412,10.733206,2.469157,-3.928911,-4.179892
48000,-0.090980,0.177171,10.730812,1.934806,-1.944179,-3.660808
52000,-0.222661,0.174777,10.742783,1.263050,-0.722805,-2.592106
56000,-0.169988,0.294487,10.764331,1.217249,0.101623,-1.584472
60000,-0.110133,0.201113,10.831368,0.484424,0.849715,-0.683709
64000,-0.083797,0.179565,10.888829,0.469157,1.078722,-0.286762
68000,0.114922,0.074220,10.910378,0.453890,1.353531,0.339192
72000,0.294487,0.119710,10.994174,0.530226,1.628341,0.339192
76000,0.325611,0.146046,11.006145,0.759233,2.437501,0.186520
80000,0.289698,0.105345,11.003751,0.759233,1.948951,-0.057755
84000,0.318429,0.119710,10.948685,1.079844,1.628341,0.171253
88000,0.373495,0.071826,10.975020,0.927172,1.032921,-0.286762
92000,0.287304,0.059855,11.013328,1.064577,0.529104,-0.698976
96000,0.227449,0.033519,11.037270,1.049310,-0.661736,-0.561571
100000,0.292093,0.090980,11.087548,1.889004,-1.959446,-0.378365
104000,0.418985,0.069432,11.030087,2.224883,-2.631201,-0.531037
108000,0.442927,0.031125,10.864887,2.179081,-2.844942,-0.836380
112000,0.414197,-0.002394,10.711658,1.705798,-3.516698,-1.080655
116000,0.471658,-0.002394,10.737994,1.293585,-4.524331,-1.523403
120000,0.363919,-0.009577,10.730812,0.499691,-5.226621,-1.645541
124000,0.213084,-0.002394,10.848128,0.423356,-5.440361,-1.584472
128000,0.126893,0.000000,10.898406,0.377554,-5.302957,-1.370732
132000,0.189142,-0.071826,10.991780,0.423356,-4.814407,-1.126457
136000,0.275333,-0.064643,10.991780,0.621829,-3.883110,-0.958518
140000,0.368707,-0.079009,11.178528,0.942440,-3.348759,-1.034854
144000,0.301669,-0.093374,11.228806,1.492058,-3.119751,-1.416533
148000,0.320823,-0.045490,11.173739,1.889004,-3.837308,-1.691342
152000,0.174777,-0.110133,11.018116,2.240149,-3.852576,-1.752411
156000,0.002394,-0.088585,10.948685,2.484425,-3.928911,-1.813480
160000,-0.074220,-0.136469,10.805033,2.453890,-4.738071,-1.355464
164000,-0.090980,-0.067038,10.840945,2.240149,-5.058682,-1.019587
168000,-0.131681,-0.088585,10.706870,1.934806,-4.936545,-0.378365
172000,-0.081403,0.014365,10.721235,1.629462,-4.982347,0.201787
176000,-0.033519,-0.047884,10.596737,1.110379,-4.447995,0.766673
180000,0.011971,-0.009577,10.503363,0.530226,-3.974713,1.026215
184000,-0.016759,-0.002394,10.582372,0.194348,-3.791507,1.224688
188000,0.026336,0.000000,10.850522,0.011142,-3.928911,1.636902
192000,0.112527,0.098162,11.037270,0.484424,-3.776240,2.003314
196000,0.366313,0.055067,11.257536,0.911905,-3.226621,2.033848
200000,0.478840,0.016759,11.264719,1.950073,-2.524331,1.789574
204000,0.598550,0.026336,11.188105,2.560760,-1.944179,1.255223
208000,0.634463,-0.004788,11.192893,3.171447,-1.241889,0.446062
212000,0.507571,-0.007183,11.204864,3.247783,-1.364026,-0.011953
216000,0.184354,0.062249,11.166556,3.659997,-2.188453,-0.027220
220000,0.201113,-0.057461,11.216835,3.950073,-2.814408,0.079650
224000,0.301669,-0.038307,11.171345,4.224883,-2.783873,0.415528
228000,0.418985,-0.009577,11.135432,4.347020,-1.608301,0.323925
232000,0.450110,-0.023942,10.941502,4.285951,-1.318224,0.262856
236000,0.521936,-0.009577,10.994174,3.980608,-1.867843,-0.149358
240000,0.787692,-0.167594,10.970232,4.514959,-2.325858,-1.294396
244000,0.758962,0.026336,10.747571,2.774501,-0.234255,-2.790579
248000,0.055067,0.193930,11.269507,3.385188,-4.661736,-1.523403
252000,0.119710,-0.047884,11.403583,4.530226,-8.127385,-0.790579
256000,0.543484,-0.114922,11.247959,5.583661,-6.753339,-0.912716
260000,0.672771,-0.095768,11.085154,5.522593,-4.325858,-1.508136
264000,0.493206,-0.107739,11.161768,5.736333,-3.867843,-1.599739
268000,0.229843,-0.119710,11.267113,6.179081,-3.547232,-1.263861
272000,0.098162,-0.167594,11.070788,5.614195,-2.722805,-1.370732
276000,0.081403,-0.119710,11.111490,5.293585,-2.615934,-0.897449
280000,0.105345,-0.124498,11.061212,5.415722,-2.035782,-0.347831
284000,0.114922,-0.143652,10.872070,5.125646,-0.554866,-0.118823
288000,0.088585,-0.196325,10.836157,4.255417,0.773379,-0.042487
292000,0.098162,-0.131681,10.766725,3.690531,0.498570,0.278123
296000,0.088585,-0.071826,10.852917,2.759233,-0.356392,0.354459
300000,0.225055,-0.126893,10.819398,2.835569,-1.257156,0.446062
304000,0.160412,0.028730,10.860099,2.682898,-2.081583,0.690337
308000,0.220267,-0.033519,10.903194,2.957707,-2.768606,0.888810
312000,0.237026,-0.002394,10.972627,3.354653,-2.814408,1.117818
316000,0.210690,-0.045490,11.063606,4.194348,-2.707537,1.117818
320000,0.339977,-0.057461,10.998962,5.110379,-2.509064,1.087284
324000,0.433351,-0.052672,10.982203,5.537859,-2.157919,0.888810
328000,0.581791,-0.047884,10.874464,5.858470,-1.669369,0.323925
332000,0.569820,-0.079009,10.828975,5.705799,-1.654102,-0.302029
336000,0.521936,-0.047884,10.963050,5.736333,-2.875476,-0.836380
340000,0.553061,-0.086191,10.958261,5.919539,-3.791507,-1.218060
344000,0.567426,-0.208296,10.817003,6.056943,-3.654102,-1.721877
348000,0.464475,-0.256180,10.730812,5.659997,-3.394560,-2.271495
352000,0.421380,-0.227449,10.831368,5.843203,-2.753339,-2.592106
356000,0.284910,-0.143652,10.919954,5.766867,-2.615934,-2.454701
360000,0.239420,-0.268151,10.838552,5.889005,-2.402194,-2.637907
364000,0.421380,-0.256180,10.819398,5.766867,-1.989980,-3.111190
368000,0.280122,-0.294487,10.783484,5.385188,-1.455629,-3.309663
372000,0.007183,-0.251391,10.632649,4.866104,-1.318224,-3.126457
376000,-0.186748,-0.328006,10.623073,4.270684,-2.081583,-2.729510
380000,-0.205901,-0.275333,10.647015,3.522592,-3.165553,-1.859281
384000,-0.282516,-0.222661,10.589554,2.957707,-4.081583,-0.897449
388000,-0.349553,-0.222661,10.704475,2.499691,-4.524331,-0.042487
392000,-0.263362,-0.337582,10.718841,2.270684,-5.654102,0.781940
396000,-0.246603,-0.438139,10.826580,1.889004,-6.753339,1.591100
400000,-0.184354,-0.450110,10.941502,1.583661,-8.295323,2.323925
404000,-0.110133,-0.543484,11.104307,1.492058,-9.974713,2.415528
408000,-0.246603,-0.593762,11.259931,1.904272,-11.028149,3.056749
412000,-0.191536,-0.646434,11.504139,2.881371,-11.593034,3.621635
416000,0.033519,-0.723049,11.573571,3.782134,-10.844942,3.865910
420000,0.612916,-0.754174,11.686098,4.896638,-9.883110,3.239955
424000,1.034295,-0.857124,11.599907,5.400455,-8.249522,1.316291
428000,0.907402,-0.938527,11.647791,5.629463,-7.348759,-0.714243
432000,0.366313,-0.814029,11.623849,6.423356,-7.806774,-1.828747
436000,-0.040701,-0.866701,11.743559,7.140913,-9.440362,-1.538671
440000,-0.074220,-0.893037,11.650186,8.041677,-9.913645,-0.546304
444000,0.026336,-0.926556,11.602302,8.469157,-9.287690,0.110184
448000,0.052672,-0.979228,11.456255,8.759233,-8.493797,0.919345
452000,0.284910,-0.991199,11.386824,9.018776,-8.142652,1.316291
456000,0.433351,-0.926556,11.224017,8.698165,-7.745705,1.072016
460000,0.624887,-1.029507,11.286267,8.545493,-6.951812,0.644536
464000,0.756568,-1.158794,11.259931,7.797401,-6.005247,-0.011953
468000,0.754174,-1.280898,11.405977,7.659997,-4.906011,-0.622640
472000,0.849942,-1.352724,11.647791,7.950073,-4.173186,-1.569205
476000,0.790087,-1.407791,11.887212,8.423356,-3.913644,-2.683709
480000,0.646434,-1.546654,11.971008,9.156180,-3.898377,-3.660808
484000,0.418985,-1.628057,12.047623,10.347020,-2.997614,-4.134090
488000,0.138864,-1.757344,11.978191,11.079844,-2.234255,-4.164625
492000,-0.055067,-1.915361,12.011710,11.629462,-0.768606,-3.889816
496000,-0.098162,-2.001553,12.004527,11.965341,0.605440,-3.569205
500000,-0.134075,-2.123657,11.985373,12.514958,2.239028,-3.431800
504000,-0.229843,-2.202666,11.882423,12.621829,3.842081,-3.233327
508000,-0.270545,-2.176329,11.832145,12.667630,5.781013,-3.263861
512000,-0.316035,-2.279280,11.762712,13.308851,7.216127,-3.263861
516000,-0.507571,-2.372654,11.686098,13.980607,9.078722,-3.309663
520000,-0.696713,-2.372654,11.544841,14.621829,10.284829,-2.714243
524000,-0.845153,-2.327164,11.317391,15.034042,10.361164,-2.042487
528000,-1.065420,-2.214637,11.255142,15.461523,9.567271,-1.233327
532000,-1.240196,-2.138022,11.118672,15.690531,8.406966,-0.149358
536000,-1.211466,-1.934515,11.085154,16.240150,6.910783,1.056749
540000,-0.907402,-1.877054,10.986992,17.171448,6.864982,1.926978
544000,-0.069432,-2.363077,10.855310,18.774502,10.116890,0.507131
548000,-0.754174,-1.704672,10.500969,16.133280,12.513836,0.797207
552000,-0.363919,-1.881842,10.395624,16.789768,11.460402,0.140719
556000,-0.548272,-2.047042,10.062830,15.354653,10.834447,-0.729510
560000,-0.945710,-1.759738,10.065224,13.980607,8.590172,-0.760045
564000,-1.309628,-1.604115,10.448297,13.537859,3.994753,0.339192
568000,-1.276109,-1.496376,10.726024,13.766867,-0.157919,2.171253
572000,-1.304840,-1.592144,10.769119,13.980607,-2.035782,3.865910
576000,-1.302446,-1.558625,10.922348,14.270683,-3.699904,5.667437
580000,-1.089362,-1.484405,10.943896,14.576027,-7.791507,7.652170
584000,-0.921768,-1.544260,11.094730,14.652363,-10.829675,8.690337
588000,-0.945710,-1.587356,11.240777,14.682898,-13.593034,9.270490
592000,-0.708684,-1.584962,11.429919,15.217249,-16.646469,9.850642
596000,0.342371,-1.977611,11.020511,16.820303,-15.883110,8.659802
600000,0.287304,-1.697489,11.257536,16.194347,-14.112118,8.843008
604000,0.237026,-1.833959,11.030087,16.972975,-13.959446,7.575834
608000,-0.019154,-2.070984,10.838552,16.163815,-13.425095,6.843009
612000,-0.624887,-2.075773,10.843340,15.476790,-13.883110,6.812475
616000,-0.936133,-2.066196,11.094730,15.324119,-15.196087,7.865910
620000,-1.254562,-2.121263,11.516110,16.377554,-16.051048,10.064383
624000,-1.072602,-2.126051,11.650186,18.728699,-13.593034,11.804840
628000,-0.471658,-1.984793,11.587936,20.377556,-9.073950,13.087283
632000,-0.483629,-1.831564,11.441890,21.873737,-4.035782,12.491863
636000,-0.538695,-1.225831,11.099519,23.186716,-1.348759,13.911711
640000,-0.766145,-1.343147,11.274296,25.812670,-3.073950,16.018581
644000,-0.260968,-1.319205,10.376471,26.606562,-3.440362,16.919346
648000,-0.040701,-1.367089,10.144233,25.492058,-2.218988,16.812475
652000,0.105345,-1.225831,10.098742,24.179081,-2.829675,16.537666
656000,0.282516,-1.154005,10.352529,23.079845,-4.753339,16.155987
660000,0.383072,-0.960075,10.407595,22.392822,-5.562499,14.720871
664000,0.275333,-1.003170,10.376471,21.690533,-4.280056,13.117818
668000,0.122104,-0.890643,10.472239,21.629463,-2.677003,12.751406
672000,0.026336,-0.706290,10.450690,21.110380,0.544371,11.911711
676000,-0.069432,-0.632069,10.699687,22.026409,3.078722,12.033848
680000,-0.059855,-0.447716,10.654198,21.614197,5.338264,11.606367
684000,-0.241814,-0.416591,11.013328,23.476791,4.803913,11.591100
688000,-0.021548,-0.306458,10.716447,23.751600,3.170325,13.056749
692000,0.181959,-0.617704,10.594342,24.072212,0.971852,13.804840
696000,0.565032,-0.648829,10.077195,23.018776,-2.539598,13.697970
700000,0.562637,-0.656011,10.330980,20.240150,-8.005247,13.194154
704000,0.509965,-0.634463,10.802638,20.087479,-16.768606,12.751406
708000,0.636858,-0.636858,10.824186,20.194349,-24.096851,11.789574
712000,0.670376,-0.665588,11.113884,20.148548,-27.333492,10.705604
716000,0.639252,-0.615310,11.492168,21.293585,-26.906012,9.667436
720000,0.739808,-0.577003,11.544841,23.400455,-21.302958,8.583467
724000,-0.268151,-0.533907,11.923124,26.301220,-15.699904,9.697970
728000,-0.375890,-0.318429,10.986992,27.034044,-6.799140,10.110184
732000,0.768539,-0.859518,10.630256,29.232517,1.781012,11.743772
736000,-0.095768,0.509965,9.196129,27.385189,16.345898,10.125451
740000,-0.596156,0.069432,9.375694,22.194349,21.093988,9.468963
744000,-0.653617,0.088585,8.676587,20.179081,22.040554,11.270490
748000,-0.584185,0.318429,8.310274,15.064577,22.284828,11.957512
752000,-0.715866,0.210690,8.197746,10.866104,22.071089,12.155986
756000,-1.206678,0.304064,8.236053,6.942440,20.605440,13.377359
760000,-1.721431,0.605733,8.688558,1.980608,15.979485,15.667436
764000,-2.111686,0.768539,9.586384,0.316485,11.261928,18.980413
768000,-1.850718,0.907402,10.472239,1.278317,4.208493,22.720873
772000,-1.053449,0.509965,10.606314,2.774501,3.414600,24.140718
776000,-0.708684,0.603339,10.445902,2.408089,4.956585,24.934612
780000,-0.627281,0.651223,10.488997,2.148547,5.093989,25.713238
784000,-0.229843,0.780510,10.256760,-0.263667,1.933684,26.003315
788000,0.081403,0.775721,10.369287,-2.492675,-2.585400,26.919346
792000,0.471658,1.297657,10.936713,-2.859087,-13.241889,27.438429
796000,1.182736,0.957681,10.917560,-3.530843,-22.661736,27.331558
800000,1.759738,1.151611,10.970232,-4.767485,-27.302958,26.247589
804000,2.178724,1.391031,11.235989,-4.965958,-32.188454,24.476597
808000,2.525883,1.386243,11.204864,-4.675881,-35.745705,22.293390
812000,2.032677,1.565808,11.197681,-4.416339,-37.241890,21.362093
816000,1.680730,1.647211,11.456255,-2.202598,-38.051048,21.087284
820000,2.138022,1.063026,10.934319,-2.507942,-34.035782,19.850643
824000,2.049437,1.936909,11.839328,-3.301835,-24.906012,19.270491
828000,2.195483,2.200271,12.155362,0.743966,-17.470896,18.186522
832000,2.341529,1.927332,11.274296,2.148547,-6.127385,17.713238
836000,1.936909,1.783680,10.728417,0.850837,5.933684,17.117819
840000,1.721431,1.987187,10.649409,-0.569010,11.735210,17.010948
844000,1.675941,1.896208,10.860099,-0.599545,15.399332,17.407894
848000,1.932121,1.948880,10.393229,-3.546110,19.933683,15.804841
852000,2.138022,1.757344,10.716447,-4.736950,21.765745,14.720871
856000,2.080561,1.867477,10.733206,-6.034659,23.200859,13.453695
860000,1.309628,1.836353,10.943896,-7.378171,22.071089,13.102551
864000,0.802058,1.932121,11.106702,-8.614813,19.338264,13.514764
868000,0.737414,1.884237,11.463438,-8.752217,15.246661,14.323924
872000,0.574608,1.944092,11.449073,-9.011759,12.559638,15.285756
876000,0.871489,1.850718,11.336545,-9.698782,10.834447,15.468963
880000,1.206678,1.817199,11.276690,-10.095729,8.498569,15.331558
884000,1.156399,1.831564,11.379641,-10.904889,5.170325,13.820107
888000,0.143652,1.956063,11.822568,-10.889622,-0.554866,13.774306
892000,-0.407014,2.176329,12.093113,-11.698782,-7.012881,15.026215
896000,0.055067,1.759738,12.852075,-8.660614,-10.844942,16.033850
900000,-0.064643,2.238579,13.055582,-5.607179,-8.234255,17.010948
904000,0.122104,2.188300,12.964602,-1.576644,-2.646469,18.293390
908000,0.167594,2.025495,12.203246,1.064577,3.994753,18.858276
912000,0.134075,2.066196,11.219229,0.698165,7.918417,19.285757
916000,-0.294487,2.171541,10.500969,-2.691148,8.330630,19.865910
920000,-0.612916,2.327164,10.467450,-5.027026,4.162692,21.438429
924000,-0.526724,1.905785,9.921572,-7.973591,-0.615934,22.766674
928000,0.028730,2.384625,10.699687,-12.233132,1.032921,23.484230
932000,-0.478840,2.724602,11.513716,-11.225499,4.223761,23.560566
936000,-0.177171,2.506729,11.561600,-8.416339,8.345898,25.881178
940000,-0.031125,2.375048,11.185710,-7.775118,16.666508,26.766674
944000,-0.098162,2.482787,10.769119,-7.469774,22.269562,27.270491
948000,-0.023942,2.458845,10.764331,-6.904889,25.582539,28.232323
952000,-0.270545,2.458845,10.132261,-7.011759,23.322996,28.934612
956000,0.337582,2.178724,9.627085,-7.820919,19.689409,29.896444
960000,-0.155623,2.238579,9.665392,-12.172065,15.872616,30.781940
964000,-0.014365,2.176329,10.517728,-12.889621,4.239028,32.781940
968000,0.694318,2.090138,11.286267,-13.011760,-6.921278,33.407894
972000,1.082179,2.296039,11.554418,-13.027026,-12.707538,32.522400
976000,1.613692,2.370260,12.717999,-9.897255,-12.051049,30.629269
980000,1.505953,2.315193,12.152967,-4.126263,-8.478530,29.957514
984000,1.055843,2.185906,11.599907,-0.248400,-2.997614,30.247589
988000,1.142034,2.281674,10.637438,-0.446873,1.994753,30.766674
992000,1.362301,2.360683,10.759542,-1.256034,5.429867,30.308659
996000,1.505953,2.669535,10.556035,0.194348,3.445134,30.217054
1000000,1.776498,2.475605,9.873688,-1.668247,2.025287,29.346827
1004000,1.731008,2.439692,9.816227,-3.943056,4.300097,29.209421
1008000,1.479617,2.580950,9.854534,-6.141530,7.765746,29.133085
1012000,1.103727,2.509123,10.079589,-7.423973,9.307730,29.667437
1016000,0.811634,2.595315,10.115502,-8.675881,9.002386,31.194155
1020000,0.859518,2.451663,10.402806,-9.775118,7.765746,32.079651
1024000,1.493982,2.322376,10.759542,-9.927790,8.315363,32.705605
1028000,2.030283,2.425326,11.185710,-8.553743,10.406966,31.163620
1032000,1.659182,2.494758,11.504139,-7.561378,12.620707,29.759041
1036000,1.759738,2.463634,11.434708,-8.141530,15.124523,28.888811
1040000,1.704672,2.726996,12.073959,-5.927790,13.353531,29.163620
1044000,2.540248,2.942474,12.246342,-2.355270,10.132157,29.041483
1048000,3.392584,3.023877,11.425131,-1.576644,7.322997,27.682705
1052000,3.983952,2.942474,11.348516,-1.591912,5.628341,26.079651
1056000,4.386178,3.193865,11.413159,-0.935423,1.735211,24.278124
1060000,4.845864,3.418920,11.542446,0.881371,-3.470896,22.522398
1064000,5.482722,3.512294,11.346122,2.087478,-6.524331,20.140718
1068000,6.284780,3.562572,11.341333,2.789768,-6.249522,16.339193
1072000,6.629545,3.416526,11.149797,2.988241,-5.623568,12.079650
1076000,6.557718,3.299210,11.077971,2.942440,-5.959445,7.636902
1080000,6.059724,3.203442,11.396400,2.896638,-8.906011,3.362093
1084000,5.437232,3.050213,11.611878,4.347020,-12.249522,0.232322
1088000,5.054160,2.894590,11.461043,5.827936,-15.394561,-2.805846
1092000,4.716578,2.686294,11.518504,6.347020,-17.531965,-5.966151
1096000,4.161122,2.698265,11.769896,7.690531,-19.135019,-8.561572
1100000,3.220201,2.442086,11.987768,8.392821,-19.348759,-10.989053
1104000,2.264915,2.233790,12.054806,11.797401,-20.997614,-11.599740
1108000,1.869871,2.128445,12.050017,12.514958,-19.226622,-11.813480
1112000,1.472434,1.862689,11.791444,13.522593,-15.089217,-12.271496
1116000,0.881066,1.647211,11.820174,13.629462,-10.844942,-12.347831
1120000,0.375890,1.438915,11.733982,13.705798,-7.394560,-12.195160
1124000,-0.023942,1.297657,11.846510,13.919538,-4.814407,-11.905083
1128000,-0.215478,1.244985,11.528081,13.843203,-2.921278,-11.202793
1132000,-0.718261,1.043872,11.415554,13.644730,-0.814408,-10.836381
1136000,-1.424550,0.912191,11.389217,12.759233,-1.715171,-9.065389
1140000,-1.829170,0.792481,11.652579,11.858470,-4.432728,-6.546304
1144000,-1.776498,0.775721,12.078748,12.148546,-6.997613,-4.668441
1148000,-1.687912,0.653617,12.215217,12.957706,-7.379293,-3.447068
1152000,-1.589750,0.586579,12.251130,13.751599,-5.379293,-2.424167
1156000,-1.601721,0.617704,12.203246,15.003509,-2.661736,-1.187526
1160000,-1.608904,0.660800,11.982980,15.889005,0.010020,-0.408900
1164000,-1.814805,0.837971,11.892000,15.980607,0.727577,0.675070
1168000,-1.515530,0.840365,11.961432,18.499691,-0.768606,2.491864
1172000,-1.520318,0.780510,11.566388,20.774502,-0.447995,3.468963
1176000,-1.616086,0.847547,11.037270,21.614197,-1.348759,5.316291
1180000,-1.024718,0.909797,10.716447,21.675264,-2.432728,6.980413
1184000,-1.977611,0.928950,9.124303,19.736334,-8.890744,8.904078
1188000,-0.433351,0.665588,10.618284,17.171448,-14.768606,10.507131
1192000,0.397437,1.312023,10.342952,19.446257,-17.837309,9.117818
1196000,1.005565,1.077391,9.521740,19.476791,-17.287691,7.224689
1200000,0.960075,0.981623,8.894460,17.934807,-14.112118,5.988047
1204000,0.636858,1.156399,8.954314,16.148546,-12.997614,5.606368
1208000,0.328006,1.187524,9.014170,14.179081,-13.073950,5.865910
1212000,0.713472,1.300052,8.798691,12.606562,-16.173185,5.438429
1216000,1.182736,1.209072,8.571242,9.721066,-15.837309,4.675070
1220000,1.180341,1.307234,8.623915,6.759233,-12.875477,3.972780
1224000,0.993594,1.484405,8.978256,4.789768,-9.577766,3.988047
1228000,1.154005,1.448492,9.222465,3.965340,-6.982347,4.400261
1232000,1.532289,1.115698,8.923190,2.072211,-2.447995,4.720871
1236000,1.719037,1.661576,8.961497,1.308852,0.071089,4.461329
1240000,2.073379,1.534683,9.366117,0.301218,1.964218,2.949879
1244000,2.042254,1.453280,9.085996,-0.614812,4.315363,1.224688
1248000,1.982399,1.505953,9.241618,-2.034660,4.254295,0.171253
1252000,1.747767,1.505953,9.643845,-1.851454,5.277195,-0.653174
1256000,1.446098,1.534683,9.938332,-1.973591,6.498569,-1.172258
1260000,1.400608,1.381454,10.192117,-1.485041,7.842081,-0.866915
1264000,1.611298,1.410185,10.369287,-0.767484,9.460402,-1.233327
1268000,1.702277,1.326388,10.407595,-0.217866,11.704676,-1.889816
1272000,2.159570,1.240196,10.311827,-0.126262,14.040554,-3.294396
1276000,2.698265,1.091756,10.163386,-0.721682,15.093989,-6.240961
1280000,2.722207,1.240196,10.141838,-1.439240,14.803913,-9.599740
1284000,2.090138,1.213860,10.374076,-1.958324,10.529103,-12.118824
1288000,1.304840,1.082179,10.694899,-1.469774,4.147425,-13.156992
1292000,0.723049,1.024718,10.943896,-0.996492,-1.822041,-12.912717
1296000,0.502782,0.859518,11.401189,-0.278934,-5.806774,-12.622641
1300000,0.399832,0.864307,11.726800,0.789768,-6.478529,-12.118824
1304000,0.481235,0.804452,11.772290,1.797401,-4.112117,-11.981419
1308000,0.404620,0.675165,11.602302,1.522592,-0.142652,-12.240961
1312000,0.184354,0.620098,11.571177,1.415722,3.353531,-12.225694
1316000,-0.004788,0.694318,11.437101,0.927172,6.147425,-12.195160
1320000,-0.447716,0.596156,11.281479,0.514959,7.781012,-11.279129
1324000,-0.835576,0.507571,11.508927,0.408088,6.956585,-9.950885
1328000,-0.926556,0.579397,11.724405,0.469157,6.086356,-8.576838
1332000,-0.701501,0.603339,12.102690,1.705798,5.750478,-7.218060
1336000,-0.656011,0.617704,12.143391,3.293585,6.864982,-6.271495
1340000,-0.500388,0.591368,11.743559,3.782134,10.071088,-5.645541
1344000,-0.531513,0.588974,11.475409,4.255417,13.490935,-4.744777
1348000,-0.620098,0.687136,11.137826,4.011142,14.300096,-3.401266
1352000,-0.593762,0.694318,10.879252,3.003508,13.063455,-2.118823
1356000,-0.457293,0.703895,10.670957,1.965340,10.819180,-1.324930
1360000,0.021548,0.770933,10.637438,0.759233,9.368798,-1.202793
1364000,0.390255,0.675165,10.376471,-0.691148,9.307730,-1.202793
1368000,0.591368,0.792481,10.199299,-2.065194,10.193226,-1.966151
1372000,0.600945,0.816423,10.237606,-3.347636,11.613073,-2.302029
1376000,0.488417,0.804452,10.438720,-4.538477,12.910783,-2.424167
1380000,0.497994,0.847547,10.486604,-5.347637,12.574905,-1.920350
1384000,0.756568,0.816423,10.627861,-5.439240,11.475668,-1.966151
1388000,1.209072,0.873884,10.668563,-5.439240,9.521470,-2.668442
1392000,1.522712,0.790087,10.579977,-5.652981,7.109257,-4.027220
1396000,1.630451,0.727837,10.512939,-6.233133,4.040555,-6.286762
1400000,1.192312,0.691924,10.596737,-6.507942,0.025287,-8.134090
1404000,0.562637,0.648829,10.649409,-6.767485,-3.333492,-8.882182
1408000,-0.064643,0.675165,10.848128,-6.950690,-5.425095,-8.393633
1412000,-0.217872,0.656011,10.886436,-6.507942,-6.371659,-7.187525
1416000,-0.193930,0.521936,11.056423,-6.691149,-4.585400,-6.149357
1420000,-0.141258,0.562637,11.386824,-6.370538,-2.020514,-5.553937
1424000,0.035913,0.656011,11.695675,-5.469774,-0.356392,-4.897449
1428000,0.074220,0.591368,11.712435,-4.416339,0.620707,-4.332564
1432000,0.213084,0.488417,11.592725,-3.027026,1.674142,-4.302029
1436000,0.136469,0.536301,11.408371,-2.126262,2.666508,-4.088289
1440000,-0.062249,0.572214,11.372458,-1.576644,1.887883,-3.859281
1444000,-0.016759,0.620098,11.489774,-0.553744,-0.524331,-3.156991
1448000,0.313640,0.584185,11.494562,0.301218,-1.348759,-2.927984
1452000,0.481235,0.598550,11.262324,0.713432,-0.982347,-3.569205
1456000,0.359130,0.677559,11.415554,0.637096,0.513837,-4.271495
1460000,0.165200,0.696713,11.274296,0.743966,1.979486,-3.966152
1464000,0.014365,0.725443,11.094730,0.469157,2.635974,-3.523403
1468000,0.067038,0.818817,11.125855,-0.172064,2.529104,-2.760045
1472000,0.119710,0.804452,11.156980,-0.416339,1.613073,-2.576838
1476000,0.280122,0.881066,11.238382,-0.645346,1.231394,-2.576838
1480000,0.426168,0.830788,11.207258,-0.233133,0.773379,-2.744777
1484000,0.610521,0.919373,11.003751,-0.355270,0.071089,-3.263861
1488000,0.459687,0.916979,11.166556,-0.095728,-1.531965,-3.691342
1492000,0.229843,0.957681,11.257536,0.194348,-4.234255,-3.844014
1496000,0.244209,1.065420,11.202470,0.667630,-6.554865,-3.584472
1500000,0.428562,1.000776,11.073183,1.156180,-7.409827,-3.813480
1504000,0.660800,1.074997,11.003751,1.736333,-6.890743,-4.103556
1508000,0.512359,1.106121,10.790668,1.430989,-4.921278,-4.760045
1512000,0.222661,1.106121,10.627861,1.171447,-3.394560,-4.927983
1516000,0.098162,1.142034,10.579977,0.469157,-3.791507,-4.622640
1520000,0.251391,1.036689,10.429143,0.377554,-3.562499,-4.271495
1524000,0.486023,1.005565,10.223241,-0.782751,-2.188453,-4.836380
1528000,0.318429,1.022324,10.290278,-1.729316,-1.501431,-5.233327
1532000,0.059855,0.972046,10.448297,-2.507942,-1.531965,-5.248594
1536000,-0.107739,0.940921,10.563218,-2.752217,-2.509064,-4.332564
1540000,-0.229843,0.914585,10.781090,-3.286568,-3.226621,-4.088289
1544000,-0.083797,0.912191,11.085154,-2.828552,-3.516698,-3.324930
1548000,0.122104,0.873884,11.238382,-1.912522,-1.913644,-2.866915
1552000,0.107739,0.780510,11.226412,-1.057560,1.567272,-2.744777
1556000,0.009577,0.881066,11.109096,-0.675881,4.544371,-2.042487
1560000,0.119710,0.778116,10.929531,-0.110996,5.292463,-1.859281
1564000,0.138864,0.770933,10.795456,-0.630080,3.460402,-1.355464
1568000,0.129287,0.749385,10.852917,-1.546110,0.315363,-1.141724
1572000,0.316035,0.780510,11.142614,-2.049927,-3.547232,-1.279129
1576000,0.316035,0.873884,11.499351,-0.996492,-6.356392,-1.248594
1580000,0.337582,0.739808,11.501745,-0.049927,-6.585400,-1.294396
1584000,0.627281,0.742203,11.396400,0.911905,-4.768606,-1.172258
1588000,0.646434,0.787692,11.360487,1.430989,-3.226621,-1.553938
1592000,0.663194,0.746991,11.197681,1.430989,-3.440362,-2.149358
1596000,0.529119,0.720655,11.192893,1.369921,-5.012881,-2.714243
1600000,0.517148,0.768539,11.291056,1.095111,-6.218987,-3.248594
1604000,0.490811,0.775721,11.417948,1.583661,-5.745705,-3.553938
1608000,0.483629,0.780510,11.317391,2.285951,-3.852576,-3.309663
1612000,0.366313,0.814029,11.209652,2.499691,-0.677003,-3.294396
1616000,0.363919,0.797269,11.042058,2.805035,1.582539,-3.279129
1620000,0.519542,0.684742,10.694899,2.194348,2.620707,-3.752411
1624000,0.215478,0.667982,10.508151,1.064577,1.781012,-4.378365
1628000,-0.184354,0.670376,10.436325,-0.080461,-0.921278,-3.950884
1632000,-0.165200,0.694318,10.536881,-0.874354,-3.547232,-3.874548
1636000,-0.153229,0.730232,10.601525,-1.057560,-4.096850,-3.431800
1640000,-0.404620,0.768539,10.572795,-1.194965,-3.180820,-2.592106
1644000,-0.572214,0.778116,10.479421,-1.576644,-2.157919,-1.385999
1648000,-0.404620,0.763750,10.374076,-2.416339,-0.371659,-0.515770
1652000,-0.284910,0.749385,10.340557,-2.843820,1.109257,-0.195159
1656000,-0.177171,0.751779,10.060435,-4.110995,2.208493,0.537665
1660000,-0.112527,0.617704,10.060435,-5.301835,1.689409,0.675070
1664000,0.031125,0.591368,10.436325,-6.645347,-0.035782,0.843009
1668000,0.000000,0.627281,11.109096,-6.340003,-1.959446,0.781940
1672000,0.165200,0.622492,11.489774,-5.072827,-3.516698,0.583467
1676000,0.457293,0.636858,11.580753,-3.530843,-3.440362,0.644536
1680000,0.622492,0.612916,11.453861,-1.637713,-1.791507,0.033849
1684000,0.605733,0.672771,11.403583,-0.401072,-0.615934,-0.317297
1688000,0.402226,0.713472,11.238382,0.530226,-2.310591,-0.546304
1692000,0.344765,0.665588,11.192893,0.835569,-4.738071,-0.531037
1696000,0.435745,0.658405,11.085154,0.866104,-6.493797,-0.637907
1700000,0.471658,0.612916,10.972627,0.469157,-6.280056,-1.263861
1704000,0.639252,0.555455,11.063606,-0.156797,-4.692270,-1.706609
1708000,0.481235,0.651223,11.130644,-0.584278,-3.104484,-2.302029
1712000,0.397437,0.682347,11.257536,-0.569010,-1.867843,-2.485235
1716000,0.232238,0.622492,11.439496,-0.401072,-0.967079,-2.500503
1720000,0.088585,0.636858,11.585542,-0.065194,-0.264789,-2.531037
1724000,0.136469,0.605733,11.669339,0.866104,0.910783,-2.256228
1728000,0.237026,0.663194,11.662156,1.858470,2.193226,-2.073022
1732000,0.160412,0.644040,11.578360,2.774501,3.979486,-1.828747
1736000,0.162806,0.651223,11.382035,3.339386,4.681776,-1.859281
1740000,0.205901,0.656011,10.900801,2.881371,5.399333,-1.828747
1744000,0.045490,0.701501,10.675745,1.568394,5.689409,-1.996686
1748000,-0.150835,0.665588,10.752359,0.255417,5.109257,-1.447067
1752000,-0.146046,0.622492,10.797850,-0.675881,4.498569,-0.515770
1756000,-0.007183,0.584185,10.951078,-1.378171,4.422234,-0.363098
1760000,0.050278,0.646434,11.152191,-1.271301,4.376432,0.278123
1764000,0.088585,0.565032,11.341333,-0.782751,3.704677,0.690337
1768000,0.122104,0.478840,11.573571,0.713432,2.055821,1.072016
1772000,0.191536,0.591368,11.607090,1.934806,-0.341125,0.934612
1776000,0.337582,0.481235,11.587936,3.232516,-1.974713,0.339192
1780000,0.289698,0.445322,11.322180,4.438623,-3.073950,-0.011953
1784000,0.122104,0.514753,11.161768,4.820302,-3.791507,0.079650
1788000,0.083797,0.495600,11.068395,5.522593,-4.188453,0.110184
1792000,0.107739,0.545878,10.790668,5.079844,-3.684637,0.354459
1796000,0.282516,0.538695,10.639832,4.316485,-2.707537,0.278123
1800000,0.318429,0.610521,10.481815,3.400455,-1.654102,0.094917
1804000,0.150835,0.603339,10.450690,2.194348,-0.707537,0.049116
1808000,-0.040701,0.636858,10.407595,1.522592,-0.661736,0.705604
1812000,0.033519,0.605733,10.551247,0.942440,-0.997614,1.346826
1816000,0.148441,0.641646,10.625467,0.667630,-1.119751,1.957513
1820000,0.241814,0.600945,10.685322,0.576027,-1.577766,1.957513
1824000,0.268151,0.634463,10.874464,0.774501,-2.127385,2.232322
1828000,0.469264,0.651223,10.831368,1.400455,-3.119751,2.217055
1832000,0.471658,0.629675,10.785878,1.415722,-3.043415,1.820108
1836000,0.572214,0.612916,10.833763,1.858470,-2.417461,1.209421
1840000,0.385466,0.574608,10.809821,2.087478,-1.638835,1.026215
1844000,0.280122,0.531513,10.850522,2.270684,-0.982347,0.949879
1848000,0.205901,0.565032,10.675745,2.224883,-0.844942,1.041482
1852000,-0.016759,0.569820,10.759542,2.102745,-1.608301,1.575833
1856000,0.059855,0.572214,10.828975,1.965340,-3.012881,2.079650
1860000,0.344765,0.557849,10.840945,1.995875,-3.577766,2.110184
1864000,0.550666,0.531513,10.728417,1.858470,-3.196087,1.392627
1868000,0.474052,0.526724,10.644621,1.186714,-1.440362,0.843009
1872000,0.316035,0.565032,10.601525,0.835569,0.010020,0.919345
1876000,0.313640,0.579397,10.654198,0.438623,1.261928,0.629268
1880000,0.299275,0.481235,10.663774,0.194348,2.086356,0.919345
1884000,0.378284,0.500388,10.745177,-0.355270,1.536737,0.827742
1888000,0.337582,0.493206,10.747571,-0.767484,1.170325,0.705604
1892000,0.177171,0.505177,10.910378,-1.271301,0.315363,0.537665
1896000,0.205901,0.617704,10.963050,-1.607178,-1.028148,0.888810
1900000,0.210690,0.531513,11.269507,-1.500308,-2.081583,0.904078
1904000,0.323217,0.497994,11.240777,-1.347636,-2.310591,1.010948
1908000,0.395043,0.605733,11.477803,-0.782751,-2.173186,0.812474
1912000,0.246603,0.553061,11.635820,-0.217866,-1.989980,1.026215
1916000,0.304064,0.462081,11.573571,0.316485,-1.822041,0.873543
1920000,0.517148,0.557849,11.571177,1.278317,-1.165553,0.644536
1924000,0.569820,0.581791,11.499351,1.934806,-0.066316,-0.011953
1928000,0.560243,0.612916,11.348516,2.118012,0.559638,-0.271495
1932000,0.483629,0.584185,11.226412,2.331753,0.452768,-0.683709
1936000,0.517148,0.627281,11.154586,2.133279,-0.005247,-0.973785
1940000,0.450110,0.648829,11.085154,2.041676,-1.440362,-1.340197
1944000,0.296881,0.572214,11.420342,2.240149,-3.593034,-1.309663
1948000,0.351948,0.641646,11.544841,3.034043,-4.951812,-1.263861
1952000,0.469264,0.557849,11.635820,3.934806,-4.173186,-1.660808
1956000,0.457293,0.521936,11.446678,4.667631,-2.478530,-1.920350
1960000,0.452504,0.574608,11.461043,6.316485,-1.287690,-2.103556
1964000,0.371101,0.486023,11.216835,6.774501,0.773379,-2.225693
1968000,0.169988,0.517148,11.051635,6.606562,1.689409,-2.393632
1972000,0.004788,0.541090,10.893618,6.209615,0.620707,-2.042487
1976000,0.000000,0.536301,10.879252,5.553127,-0.783873,-1.706609
1980000,-0.016759,0.476446,10.903194,5.308852,-2.264789,-1.263861
1984000,0.028730,0.550666,10.850522,4.820302,-2.997614,-0.897449
1988000,0.208296,0.524330,10.797850,4.682898,-2.570133,-0.637907
1992000,0.452504,0.555455,10.637438,4.163814,-1.638835,-0.760045
1996000,0.433351,0.490811,10.584765,3.736333,0.010020,-1.462335
