time_us,ax,ay,az,gx,gy,gz
0,1.070208,0.651223,10.874464,3.186715,-0.722805,0.461329
4000,1.127669,0.577003,10.836157,3.095111,-0.386927,-0.179892
8000,1.000776,0.569820,10.843340,2.743967,-0.203721,-0.271495
12000,0.948104,0.598550,10.836157,2.728699,0.086356,-0.286762
16000,0.907402,0.584185,10.900801,3.018775,0.819180,-0.164625
20000,0.950498,0.579397,10.778696,3.140913,1.338264,0.049116
24000,0.912191,0.596156,10.824186,3.430989,1.277195,0.033849
28000,1.041478,0.605733,10.651803,3.476791,0.819180,-0.011953
32000,1.182736,0.675165,10.716447,3.125646,0.300096,0.033849
36000,1.192312,0.603339,10.589554,2.896638,-0.432728,-0.363098
40000,1.206678,0.706290,10.512939,2.423356,-0.493797,-0.469968
44000,1.256956,0.739808,10.412383,1.705798,-1.089217,-0.653174
48000,1.252167,0.588974,10.374076,1.385188,-1.379293,-0.821113
52000,1.242591,0.567426,10.551247,1.034043,-1.501431,-1.340197
56000,1.266533,0.545878,10.716447,0.988241,-2.020514,-1.370732
60000,1.333570,0.565032,10.893618,1.140913,-2.005247,-1.385999
64000,1.189918,0.553061,10.924743,1.644730,-2.264789,-1.645541
68000,1.221043,0.526724,11.008539,2.118012,-2.234255,-1.828747
72000,1.015141,0.481235,10.812215,2.362287,-2.005247,-1.889816
76000,0.940921,0.409408,10.776301,1.904272,-1.928911,-1.844014
80000,0.780510,0.404620,10.833763,1.812669,-2.112118,-1.660808
84000,0.715866,0.402226,10.943896,1.492058,-2.234255,-1.584472
88000,0.672771,0.409408,11.075577,1.354653,-2.341125,-1.172258
92000,0.766145,0.359130,11.128249,1.659997,-2.432728,-0.760045
96000,0.926556,0.351948,11.137826,2.072211,-1.333492,-0.973785
100000,0.974440,0.371101,11.176133,2.560760,-0.127385,-1.141724
104000,0.792481,0.304064,11.061212,2.759233,0.742844,-1.111190
108000,0.562637,0.399832,10.951078,2.591295,0.177959,-0.668442
112000,0.541090,0.361524,10.872070,2.835569,-0.936545,-0.027220
116000,0.610521,0.347159,10.740389,2.759233,-2.127385,0.339192
120000,0.976834,0.442927,10.747571,2.179081,-2.203721,0.812474
124000,1.051055,0.339977,10.661380,1.950073,-2.325858,0.583467
128000,1.010353,0.447716,10.795456,1.553127,-2.142652,0.476597
132000,0.952892,0.349553,10.776301,1.201982,-2.707537,0.827742
136000,0.897826,0.368707,10.888829,1.324119,-3.501430,0.980413
140000,1.007959,0.330400,10.884041,1.324119,-4.112117,1.194154
144000,1.031901,0.328006,10.862494,1.751600,-3.791507,1.117818
148000,1.000776,0.277727,10.943896,1.827936,-3.028148,1.362093
152000,0.902614,0.299275,10.845734,2.118012,-1.944179,1.392627
156000,0.931344,0.301669,10.802638,2.041676,-1.333492,1.636902
160000,1.010353,0.232238,10.800244,1.995875,-0.890743,1.988047
164000,1.039083,0.215478,10.809821,1.797401,-0.509064,2.018581
168000,1.060631,0.177171,10.716447,1.476791,-0.570133,2.201787
172000,1.051055,0.196325,10.793061,1.156180,-0.722805,2.568200
176000,1.113304,0.095768,10.730812,1.049310,-1.776240,2.614001
180000,1.223437,0.090980,10.726024,0.560760,-1.898377,2.461329
184000,1.326388,0.040701,10.802638,-0.187331,-2.661736,2.308658
188000,1.285686,-0.009577,10.917560,-0.446873,-3.974713,2.125452
192000,1.244985,0.000000,11.135432,-0.523209,-4.814407,1.881177
196000,1.357512,0.031125,11.257536,-0.110996,-5.440361,1.606368
200000,1.410185,-0.040701,11.245565,0.545493,-5.318224,1.667436
204000,1.544260,-0.016759,11.219229,1.110379,-4.722805,1.438429
208000,1.532289,-0.162806,11.185710,1.476791,-5.073949,0.843009
212000,1.448492,-0.174777,11.176133,1.476791,-6.386927,0.369726
216000,1.407791,-0.260968,11.267113,1.415722,-8.173186,0.186520
220000,1.455675,-0.301669,11.425131,2.011142,-10.035782,-0.118823
224000,1.455675,-0.385466,11.334151,2.438623,-10.218988,-0.744777
228000,1.417367,-0.533907,11.291056,2.988241,-8.814408,-0.714243
232000,1.316811,-0.555455,11.343728,3.110379,-8.005247,-0.698976
236000,1.175553,-0.720655,11.195287,3.232516,-6.906011,-0.729510
240000,1.072602,-0.770933,11.224017,2.637096,-6.386927,-0.485235
244000,0.876278,-0.833182,11.307815,1.919539,-6.173186,-0.347831
248000,0.814029,-0.900220,11.389217,1.675264,-5.913644,0.430795
252000,0.785298,-0.964863,11.437101,1.217249,-4.738071,0.888810
256000,0.811634,-1.036689,11.566388,0.881371,-2.814408,1.362093
260000,0.787692,-0.976834,11.635820,1.079844,-0.982347,1.957513
264000,0.735020,-1.113304,11.784261,1.369921,0.620707,2.843009
268000,0.837971,-1.082179,11.774684,1.873737,1.994753,3.316291
272000,0.988805,-1.156399,11.602302,1.766867,3.322997,3.407894
276000,1.017536,-1.149217,11.587936,1.766867,3.643608,3.438429
280000,1.031901,-1.134852,11.468226,1.644730,3.277195,3.270490
284000,1.007959,-1.216254,11.477803,0.972974,2.315363,3.133085
288000,0.905008,-1.146823,11.415554,0.713432,0.880249,3.178887
292000,0.816423,-1.319205,11.506534,0.713432,-0.127385,3.606368
296000,0.651223,-1.314417,11.499351,0.499691,-1.104484,4.262856
300000,0.579397,-1.319205,11.513716,0.728699,-2.035782,4.919345
304000,0.615310,-1.395820,11.590330,0.316485,-2.386927,5.713238
308000,0.761356,-1.446098,11.573571,0.072211,-2.967079,6.094917
312000,0.799663,-1.534683,11.779472,0.041676,-4.157919,6.507131
316000,0.837971,-1.525106,12.085930,0.911905,-5.608301,7.056749
320000,0.988805,-1.577779,12.234370,2.530226,-6.554865,7.545299
324000,1.273715,-1.649605,12.272678,4.102745,-6.264789,7.804841
328000,1.491588,-1.781286,12.054806,5.614195,-5.089217,7.377360
332000,1.374272,-1.824382,11.918336,6.514959,-3.425095,6.873543
336000,1.268927,-1.867477,11.918336,7.247783,-3.241888,6.675070
340000,1.235408,-1.893813,11.915942,8.652364,-4.325858,6.720871
344000,1.479617,-1.975216,11.789049,9.690532,-4.707537,6.293391
348000,1.520318,-2.066196,11.444284,9.919538,-3.608301,6.278123
352000,1.503559,-2.205060,11.204864,9.843203,-3.287690,6.140719
356000,1.244985,-2.250550,11.051635,9.415722,-4.402194,6.217055
360000,1.017536,-2.334347,11.034876,8.530226,-7.058682,6.522398
364000,0.991199,-2.363077,11.051635,8.133280,-10.157920,7.331559
368000,0.948104,-2.207454,10.991780,7.614195,-12.661736,7.881176
372000,1.074997,-2.205060,10.984597,7.263050,-14.234255,8.186520
376000,1.278504,-2.114080,11.034876,6.911905,-14.554866,8.552932
380000,1.350330,-2.111686,11.082760,6.484425,-13.867843,8.247588
384000,1.189918,-2.003947,11.348516,6.041677,-12.631202,8.094917
388000,1.084573,-1.771709,11.607090,6.240149,-11.883110,8.262856
392000,1.091756,-1.589750,11.889606,7.522593,-9.913645,8.781940
396000,1.271321,-1.482011,11.920731,9.293585,-5.944179,9.362092
400000,1.441309,-1.474828,11.698070,10.301218,-1.196087,9.438428
404000,1.656788,-1.407791,11.568783,11.049310,2.315363,9.362092
408000,1.661576,-1.414973,11.473015,11.201982,3.552005,8.812474
412000,1.663970,-1.259350,11.621455,10.988241,2.803913,7.896444
416000,1.623269,-1.300052,11.889606,11.553126,-0.661736,7.850643
420000,1.740585,-1.312023,12.131420,12.408089,-3.776240,7.239955
424000,1.836353,-1.302446,12.349293,13.461523,-6.371659,6.858276
428000,1.862689,-1.357512,12.643779,15.293585,-8.554866,6.339192
432000,1.845930,-1.367089,12.868834,17.812670,-12.157920,5.865910
436000,2.149993,-1.340753,13.096283,20.606562,-16.585400,4.797207
440000,2.449268,-1.398214,13.048399,23.293585,-19.852575,2.858276
444000,2.655170,-1.510741,12.782643,25.980608,-21.730438,0.629268
448000,2.808398,-1.568202,12.471396,27.690533,-22.310591,-2.439434
452000,2.691083,-1.592144,11.980585,28.285952,-22.661736,-5.126457
456000,2.212242,-1.618480,11.722012,28.041677,-23.272423,-7.538671
460000,1.651999,-1.505953,11.484985,27.812670,-23.791508,-9.111190
464000,1.347936,-1.558625,11.324574,27.293585,-24.478531,-9.721877
468000,1.271321,-1.448492,11.039664,26.499693,-22.982347,-9.569205
472000,1.189918,-1.460463,10.694899,25.492058,-19.073950,-9.798213
476000,0.924162,-1.412579,10.309433,24.362288,-14.463263,-9.431801
480000,0.509965,-1.355118,9.957485,22.484425,-11.073950,-8.805846
484000,0.126893,-1.345541,9.799467,20.224884,-9.547233,-7.279129
488000,-0.062249,-1.367089,9.603143,17.904272,-7.974713,-5.844014
492000,0.007183,-1.300052,9.710882,15.247783,-6.066316,-4.622640
496000,-0.158017,-1.237802,10.184934,13.125646,-3.593034,-3.492869
500000,-0.280122,-1.125275,10.730812,12.423355,-2.234255,-1.935617
504000,-0.088585,-1.007959,11.020511,13.079844,-0.020514,-0.347831
508000,0.337582,-0.916979,11.152191,13.889005,4.101623,1.133085
512000,0.651223,-0.847547,11.066000,14.377554,8.147424,1.484230
516000,1.101333,-0.854730,10.864887,14.850837,11.155058,0.843009
520000,1.412579,-0.756568,10.647015,14.637096,12.590172,-0.683709
524000,1.565808,-0.624887,10.240001,13.889005,12.345898,-2.378365
528000,1.695095,-0.385466,10.010158,12.805035,9.964218,-4.317297
532000,1.778892,-0.213084,10.034100,12.102745,6.376432,-6.714243
536000,1.766921,0.021548,9.892841,11.583661,2.315363,-8.454701
540000,1.525106,0.102951,9.952697,11.598928,-0.997614,-10.164625
544000,1.218649,0.225055,10.000581,11.980607,-5.287690,-10.943251
548000,0.924162,0.217872,9.974244,12.148546,-9.715171,-11.019587
552000,1.007959,0.301669,9.749189,11.797401,-14.127385,-11.095922
556000,0.833182,0.313640,9.813833,11.659997,-18.371660,-11.416533
560000,0.737414,0.404620,9.921572,11.614196,-21.913645,-11.767678
564000,0.703895,0.502782,10.108319,11.476790,-23.791508,-11.920350
568000,0.565032,0.399832,10.046070,11.751600,-22.921278,-11.859282
572000,0.232238,0.304064,9.964667,11.553126,-20.936544,-10.958518
576000,0.052672,0.304064,9.938332,10.606562,-18.982347,-10.179893
580000,0.016759,0.409408,10.151415,9.751600,-17.822042,-9.553938
584000,0.055067,0.442927,10.125079,9.125646,-16.020514,-8.744778
588000,0.043096,0.524330,10.046070,7.934806,-14.707538,-8.256227
592000,0.023942,0.730232,10.168175,7.461524,-13.379293,-7.691342
596000,0.107739,0.802058,10.220847,7.430989,-11.180820,-6.989052
600000,0.059855,0.905008,10.072407,7.629462,-8.356393,-6.042487
604000,0.055067,1.000776,9.832987,7.018775,-6.615934,-5.218060
608000,0.287304,0.943315,9.583989,6.194348,-6.600667,-4.622640
612000,0.644040,0.881066,9.334992,4.087478,-7.211354,-4.882182
616000,0.799663,0.876278,9.102755,1.079844,-7.501431,-5.950884
620000,0.746991,0.919373,8.987833,-2.233133,-8.799141,-6.958518
624000,0.708684,1.173159,8.990228,-5.530843,-11.425095,-7.508136
628000,0.869095,1.278504,9.287108,-7.683515,-12.600668,-7.767678
632000,1.065420,1.288081,9.416395,-8.935423,-11.241889,-8.378366
636000,1.230620,1.335965,9.258378,-10.294202,-7.501431,-8.744778
640000,1.482011,1.388637,9.306262,-12.553744,-5.196087,-9.447068
644000,1.929727,1.539472,9.619903,-13.622445,-3.730438,-10.973785
648000,2.480393,1.831564,9.897630,-13.836186,-1.486163,-13.004320
652000,2.626439,1.946486,10.007763,-13.347636,0.697043,-15.676076
656000,2.614468,1.999158,9.950302,-12.507943,2.849715,-17.630274
660000,2.607286,2.099715,10.110714,-12.126264,3.750478,-19.263861
664000,2.758120,2.075773,10.347740,-11.286569,4.193226,-20.683708
668000,2.817975,2.111686,10.362105,-10.553743,3.613073,-22.744778
672000,2.808398,2.030283,10.400413,-10.462141,1.872615,-24.958517
676000,2.729390,2.109292,10.259154,-11.317102,-0.646469,-26.408899
680000,2.724602,2.260126,10.369287,-11.836186,-3.760972,-27.798212
684000,2.774880,2.339135,10.558430,-12.187331,-5.180820,-29.523403
688000,2.334347,2.348712,10.433931,-12.920156,-5.928911,-30.561571
692000,1.865083,2.442086,10.383653,-13.637713,-7.135018,-30.561571
696000,1.632846,2.595315,10.259154,-15.103362,-7.562499,-29.737143
700000,1.821988,2.621651,10.168175,-16.721682,-5.791507,-29.385998
704000,1.951274,2.647987,9.804255,-18.920155,-3.318224,-29.263861
708000,2.006341,2.748544,9.854534,-21.851452,-1.104484,-29.385998
712000,1.960851,2.918532,10.225636,-24.141529,-0.768606,-29.523403
716000,1.956063,3.064578,10.886436,-24.599545,-1.608301,-29.889814
720000,2.181118,3.236961,11.451467,-23.072826,0.055821,-30.164623
724000,2.633622,3.019088,11.039664,-21.668247,4.269562,-30.775311
728000,2.975993,2.865860,10.407595,-22.004124,10.330630,-32.408901
732000,2.820370,2.940080,10.295067,-23.912521,13.781012,-34.454700
736000,2.114080,3.105280,10.819398,-24.630079,12.559638,-36.149357
740000,1.707066,3.205836,11.037270,-23.622444,6.239028,-37.080654
744000,1.812411,3.263297,10.960655,-22.920155,1.979486,-36.668442
748000,2.161964,3.248932,10.529699,-22.706415,0.910783,-36.943249
752000,2.229002,3.232172,10.412383,-23.347635,2.437501,-37.844013
756000,1.807622,3.251326,10.369287,-24.630079,0.895516,-38.332561
760000,1.221043,3.349488,10.728417,-25.637712,-4.906011,-38.302029
764000,1.137246,3.354277,10.912771,-26.172064,-11.989981,-37.889816
768000,1.125275,3.337517,10.963050,-26.553743,-15.699904,-37.355465
772000,0.957681,3.301604,11.247959,-26.675880,-17.287691,-36.592106
776000,0.816423,3.447650,11.753136,-25.561377,-17.822042,-35.355465
780000,0.754174,3.490746,12.227188,-23.546110,-17.501431,-33.721874
784000,0.723049,3.497929,12.186486,-20.889620,-16.615934,-31.767677
788000,0.902614,3.414132,12.093113,-19.149162,-15.287690,-30.592106
792000,1.271321,3.450045,12.191275,-17.225498,-14.371660,-29.905083
796000,1.553837,3.500323,12.490550,-15.332370,-13.150286,-29.767677
800000,1.795651,3.464410,12.682086,-12.691148,-12.478530,-29.828747
804000,1.970428,3.517082,12.710816,-10.065194,-12.234255,-30.179892
808000,2.243367,3.464410,12.495338,-7.179698,-11.104485,-30.958517
812000,2.152387,3.397372,12.222400,-4.614813,-9.180820,-31.905083
816000,1.869871,3.392584,12.026075,-3.332370,-8.432729,-31.859282
820000,1.388637,3.469198,11.865664,-2.462140,-9.333492,-31.492868
824000,1.228225,3.557784,11.674128,-1.744583,-11.165553,-29.905083
828000,1.187524,3.428497,11.511322,-1.149163,-11.028149,-28.592106
832000,1.252167,3.550601,11.195287,-0.996492,-9.699904,-26.882181
836000,1.168370,3.330335,11.020511,-2.507942,-6.707537,-25.095922
840000,1.173159,3.136404,11.233594,-2.049927,-5.577766,-22.958517
844000,1.302446,3.423708,11.286267,-1.805652,-5.196087,-21.615005
848000,1.592144,3.392584,11.463438,-1.881988,-3.623568,-21.156990
852000,1.805228,3.198653,11.619061,-0.706415,-1.409827,-21.553938
856000,1.860295,3.069367,11.429919,0.194348,0.758111,-22.073021
860000,1.908179,2.923320,11.281479,0.835569,2.269562,-22.500502
864000,1.769315,2.844312,11.377247,1.675264,2.116890,-23.401266
868000,1.462857,2.894590,11.501745,2.942440,-0.280056,-23.141724
872000,1.211466,2.889802,11.449073,3.766867,-4.860209,-22.576838
876000,1.525106,2.494758,11.401189,5.385188,-8.173186,-21.691341
880000,1.865083,2.863465,11.056423,5.721066,-9.593034,-22.378365
884000,1.489193,2.559402,11.228806,6.224882,-10.234255,-22.515770
888000,1.077391,2.482787,11.156980,6.423356,-14.814408,-21.599739
892000,0.828394,2.535460,11.604695,7.965341,-20.417461,-21.324930
896000,1.027112,2.597709,12.023681,11.095112,-24.509064,-20.286762
900000,1.247379,2.346318,12.114660,13.934806,-24.707539,-19.920349
904000,1.903390,2.351106,11.743559,15.049310,-20.738071,-20.714243
908000,2.013524,2.252944,11.908759,18.148546,-15.150286,-21.615005
912000,1.656788,2.185906,11.458650,21.995876,-11.318225,-22.134090
916000,1.259350,2.264915,10.436325,20.408089,-9.073950,-22.592106
920000,0.517148,1.774103,10.357317,21.507326,-9.623569,-21.294395
924000,0.347159,2.118869,9.746795,20.041677,-12.066317,-20.347830
928000,-0.014365,2.061408,9.662998,17.736334,-12.173186,-18.210426
932000,-0.093374,2.070984,9.536105,15.354653,-11.867843,-16.469969
936000,0.069432,2.047042,9.734824,13.980607,-9.822042,-14.424167
940000,-0.059855,2.023100,9.682152,12.469157,-6.844942,-12.164625
944000,-0.102951,1.946486,9.595961,10.499692,-4.753339,-9.615006
948000,0.069432,1.927332,9.832987,9.095112,-3.547232,-7.630273
952000,0.407014,1.845930,9.840169,8.224882,-2.096850,-6.637907
956000,0.565032,1.687912,9.564836,6.728699,-0.417461,-5.721877
960000,0.545878,1.618480,9.294291,4.301219,0.330631,-4.927983
964000,0.553061,1.613692,9.337387,1.583661,-1.302957,-3.844014
968000,0.512359,1.647211,9.660604,-0.614812,-5.119751,-2.668442
972000,0.687136,1.553837,10.115502,-2.126262,-8.615934,-1.355464
976000,0.897826,1.604115,10.225636,-2.492675,-11.394561,-0.103556
980000,1.144428,1.369483,10.307038,-2.630080,-12.112118,0.705604
984000,1.340753,1.510741,10.620679,-2.507942,-10.936545,1.377360
988000,1.426944,1.429338,10.922348,-1.500308,-9.257156,1.468963
992000,1.453280,1.441309,11.329363,0.026409,-8.524332,1.789574
996000,1.714248,1.477222,11.767501,3.247783,-8.020514,1.636902
1000000,2.114080,1.460463,11.848905,6.606562,-4.539598,1.010948
1004000,2.267309,1.338359,11.724405,9.598928,0.926050,0.186520
1008000,2.114080,1.331176,11.410766,11.446257,5.933684,-0.653174
1012000,1.989582,1.295263,11.434708,13.507325,7.948951,-1.080655
1016000,2.073379,1.448492,11.295844,15.171447,8.254294,-1.187526
1020000,2.243367,1.359907,11.161768,16.545494,8.193226,-1.798213
1024000,2.346318,1.331176,10.879252,16.484425,10.025287,-2.744777
1028000,2.169147,1.204283,10.702082,17.507326,11.063455,-3.462335
1032000,1.802834,1.419762,10.484209,17.934807,10.330630,-3.141724
1036000,1.910573,1.352724,10.390836,17.965342,9.246661,-2.332564
1040000,2.013524,1.326388,9.943120,17.140913,9.261928,-2.805846
1044000,1.754950,1.230620,9.598354,15.369921,8.819180,-2.851648
1048000,1.558625,1.221043,9.749189,12.988241,7.506203,-2.240961
1052000,1.527501,1.355118,9.900024,11.308852,6.376432,-1.721877
1056000,1.515530,1.252167,9.964667,9.950073,5.231394,-0.836380
1060000,1.565808,1.228225,9.947908,8.331753,5.093989,-0.271495
1064000,1.671153,1.211466,10.060435,6.743966,3.933684,-0.057755
1068000,1.699883,1.264138,10.417171,5.583661,1.750478,0.064383
1072000,1.766921,1.230620,10.541670,5.018775,0.147424,-0.408900
1076000,1.742979,1.170765,10.556035,4.301219,-1.073950,-1.095922
1080000,1.675941,1.125275,10.613496,4.408089,-1.455629,-1.477602
1084000,1.505953,1.127669,10.773908,4.377554,-1.715171,-1.721877
1088000,1.300052,1.175553,10.979809,5.293585,-1.638835,-1.645541
1092000,1.240196,1.144428,11.145009,6.133279,-2.173186,-1.218060
1096000,1.362301,1.074997,11.094730,7.110379,-2.341125,-0.668442
1100000,1.671153,0.979228,11.032481,8.621829,-1.608301,-0.851648
1104000,1.738190,0.926556,10.946290,9.476790,-0.707537,-1.630274
1108000,1.692701,1.007959,10.709264,9.659997,-0.967079,-2.118823
1112000,1.534683,1.060631,10.711658,9.461524,-1.669369,-1.721877
1116000,1.285686,0.981623,10.809821,10.041677,-5.073949,-0.836380
1120000,1.230620,0.866701,10.642226,9.598928,-5.593033,-0.378365
1124000,1.367089,0.828394,10.630256,9.415722,-4.188453,0.384994
1128000,1.544260,0.909797,10.577583,8.514958,-2.890743,0.812474
1132000,1.637634,0.979228,10.673351,8.301218,-1.440362,0.904078
1136000,1.651999,0.893037,10.615891,7.644730,0.422234,1.178887
1140000,1.599327,0.902614,10.606314,6.789768,1.948951,1.102551
1144000,1.453280,0.914585,10.477027,5.980608,2.742844,1.438429
1148000,1.316811,1.017536,10.577583,5.644730,3.384066,1.988047
1152000,1.237802,1.065420,10.584765,5.614195,3.063455,2.751406
1156000,1.225831,1.094150,10.826580,5.919539,2.422234,3.530032
1160000,1.347936,1.127669,10.704475,5.980608,2.101623,3.896444
1164000,1.340753,1.051055,10.690110,5.705799,2.071089,3.865910
1168000,1.364695,1.063026,10.692505,5.736333,1.506203,4.110185
1172000,1.407791,1.149217,10.795456,5.904272,0.666508,4.232322
1176000,1.599327,1.127669,10.579977,6.179081,0.620707,4.125452
1180000,1.754950,1.108515,10.345345,5.705799,1.353531,3.728505
1184000,1.807622,1.065420,9.892841,4.667631,2.697043,3.010948
1188000,1.525106,1.055843,9.725247,3.125646,2.956585,2.629268
1192000,1.149217,1.098939,9.572019,1.369921,1.613073,3.438429
1196000,0.974440,0.969652,9.677363,-0.813286,-0.539598,4.476597
1200000,1.115698,0.964863,9.955091,-3.027026,-2.951812,5.789574
1204000,1.503559,0.857124,10.362105,-4.782751,-4.035782,6.155986
1208000,1.726219,0.854730,10.838552,-5.225499,-3.852576,5.881177
1212000,1.675941,0.816423,11.094730,-5.149163,-2.692270,5.911711
1216000,1.661576,0.667982,11.240777,-4.782751,-1.730438,5.621635
1220000,1.714248,0.656011,11.166556,-4.691149,-1.226621,5.331559
1224000,1.771709,0.574608,11.499351,-4.126263,-0.814408,4.354459
1228000,1.565808,0.612916,11.745954,-3.347636,-0.860209,3.453696
1232000,1.335965,0.598550,11.870452,-1.836186,-1.440362,3.285757
1236000,1.359907,0.706290,11.949461,-0.233133,-1.302957,3.423162
1240000,1.436521,0.694318,11.896789,1.568394,1.002386,3.484231
1244000,1.357512,0.684742,11.643003,2.759233,3.933684,3.789574
1248000,1.115698,0.639252,11.465832,3.156180,5.490936,4.339192
1252000,0.995988,0.727837,11.520899,3.186715,4.773379,5.087284
1256000,1.295263,0.758962,11.552023,3.537859,4.086356,5.407895
1260000,1.501164,0.818817,11.626244,3.751600,4.345898,5.423162
1264000,1.489193,0.787692,11.583148,4.270684,5.063455,5.239955
1268000,1.683124,0.790087,11.745954,4.805035,4.987119,5.484231
1272000,1.661576,0.837971,12.002133,5.919539,4.239028,5.346826
1276000,1.704672,0.998382,12.102690,7.385188,3.735211,4.949879
1280000,1.702277,1.005565,11.925519,8.835569,3.338264,4.995681
1284000,1.790863,0.991199,11.688493,9.797401,3.536737,4.904078
1288000,1.862689,1.024718,11.537658,10.866104,4.086356,4.384994
1292000,2.047042,1.072602,11.293449,11.354653,4.315363,4.232322
1296000,2.166753,1.048660,10.941502,11.079844,4.941318,3.270490
1300000,2.171541,1.103727,10.551247,10.438622,4.681776,2.537665
1304000,2.329558,1.132457,10.546458,9.140913,3.246661,1.438429
1308000,2.370260,1.151611,10.587160,8.392821,2.040554,0.568200
1312000,2.140416,1.180341,10.338163,7.858470,-0.218988,-0.286762
1316000,1.951274,1.173159,10.481815,6.453890,-2.783873,-0.363098
1320000,1.946486,1.180341,10.814610,6.637096,-5.440361,-0.698976
1324000,1.960851,1.225831,10.900801,7.171447,-7.073949,-0.790579
1328000,2.032677,1.118092,10.898406,7.461524,-7.669369,-0.729510
1332000,2.195483,1.067814,10.898406,7.843203,-7.364026,-1.447067
1336000,2.343924,1.103727,10.826580,7.721066,-6.341125,-2.057755
1340000,2.236184,1.067814,10.745177,8.438622,-5.302957,-2.790579
1344000,2.001553,1.051055,10.661380,8.011142,-5.119751,-3.309663
1348000,1.893813,1.024718,10.414778,7.812669,-5.302957,-3.630274
1352000,1.707066,0.995988,10.321404,6.789768,-4.799140,-3.660808
1356000,1.505953,1.019930,10.374076,5.827936,-4.814407,-3.447068
1360000,1.498770,1.027112,10.486604,5.751600,-5.333491,-3.187526
1364000,1.611298,0.933739,10.424355,5.247783,-5.180820,-3.050121
1368000,1.632846,0.893037,10.412383,4.637096,-3.974713,-3.309663
1372000,1.467646,0.924162,10.398018,4.224883,-3.989980,-3.569205
1376000,1.357512,0.885855,10.532093,4.026409,-4.539598,-3.355464
1380000,1.204283,0.861913,10.625467,3.553127,-4.951812,-3.523403
1384000,1.101333,0.826000,10.477027,3.415722,-4.585400,-3.279129
1388000,1.134852,0.869095,10.515334,3.201982,-3.699904,-3.080655
1392000,1.158794,0.797269,10.589554,2.972974,-2.310591,-2.775312
1396000,1.065420,0.835576,10.517728,2.637096,-0.997614,-2.531037
1400000,1.000776,0.864307,10.563218,2.148547,-0.554866,-2.225693
1404000,0.957681,0.845153,10.500969,1.766867,-0.921278,-1.508136
1408000,0.924162,0.876278,10.450690,1.217249,-0.570133,-1.111190
1412000,0.926556,0.907402,10.465055,0.896638,-1.211354,-0.775312
1416000,0.955287,0.893037,10.589554,0.774501,-1.531965,-0.256228
1420000,1.113304,0.950498,10.589554,0.591295,-1.318224,0.217055
1424000,1.225831,0.943315,10.618284,0.896638,-1.302957,0.110184
1428000,1.345541,1.027112,10.591949,0.743966,-0.768606,0.247589
1432000,1.371878,1.007959,10.541670,0.453890,-0.799140,0.079650
1436000,1.338359,0.995988,10.551247,0.270684,-0.707537,0.110184
1440000,1.146823,1.077391,10.594342,-0.156797,-1.135018,0.308658
1444000,1.230620,1.168370,10.728417,0.011142,-1.806774,0.995681
1448000,1.424550,1.161188,10.749966,0.255417,-2.478530,1.316291
1452000,1.525106,1.182736,10.603919,0.362287,-2.417461,1.133085
1456000,1.410185,1.118092,10.594342,0.316485,-2.646469,1.102551
1460000,1.350330,1.151611,10.505757,0.011142,-3.547232,1.163620
1464000,1.333570,1.189918,10.441113,-0.767484,-3.654102,1.530032
1468000,1.161188,1.199495,10.460267,-1.515576,-3.989980,1.865910
1472000,1.134852,1.180341,10.675745,-2.110996,-4.112117,2.675070
1476000,1.146823,1.118092,10.714052,-2.859087,-3.776240,3.606368
1480000,1.256956,1.096544,10.898406,-3.256034,-3.180820,3.988047
1484000,1.350330,1.244985,11.113884,-3.332370,-2.234255,4.415528
1488000,1.350330,1.165976,11.247959,-3.164430,-1.928911,4.781940
1492000,1.434127,1.173159,11.446678,-2.355270,-1.760972,5.316291
1496000,1.678335,1.146823,11.458650,-1.530843,-0.631201,5.575833
1500000,2.006341,1.063026,11.473015,-0.798018,1.506203,4.949879
1504000,2.138022,1.022324,11.348516,-0.324736,4.269562,3.881177
1508000,2.102109,1.041478,11.473015,0.530226,6.177959,2.751406
1512000,2.035071,1.051055,11.552023,1.583661,7.170325,2.232322
1516000,2.070984,1.051055,11.547235,2.408089,7.674142,1.621635
1520000,2.190695,1.007959,11.544841,3.385188,8.422234,1.072016
1524000,2.140416,0.936133,11.408371,3.873737,8.666508,0.430795
1528000,2.219425,0.962469,11.243171,4.301219,7.429867,-0.317297
1532000,2.298434,0.919373,11.190498,4.301219,5.735211,-1.233327
1536000,2.257732,0.893037,11.334151,4.637096,2.468035,-2.240961
1540000,2.164358,0.945710,11.329363,5.171447,-1.822041,-3.019587
1544000,2.181118,0.924162,11.295844,5.934806,-5.394560,-3.798213
1548000,2.068590,0.914585,11.142614,6.576027,-7.348759,-4.790579
1552000,1.884237,0.881066,10.996569,6.759233,-6.509064,-5.172258
1556000,1.644817,0.967257,10.900801,6.591295,-5.898377,-5.508136
1560000,1.470040,0.921768,10.857705,5.751600,-5.058682,-5.523403
1564000,1.355118,0.955287,10.747571,5.339386,-3.409827,-5.294395
1568000,1.345541,1.017536,10.745177,4.820302,-2.341125,-4.958518
1572000,1.285686,0.991199,10.618284,4.209615,-1.089217,-4.240961
1576000,1.261744,0.988805,10.381259,3.369921,0.544371,-3.874548
1580000,1.079785,0.984017,10.244789,2.240149,0.849715,-3.156991
1584000,0.993594,0.955287,10.199299,1.018775,0.452768,-2.149358
1588000,0.974440,0.938527,10.352529,-0.065194,-1.257156,-1.340197
1592000,1.187524,0.948104,10.453085,-0.614812,-1.684637,-0.790579
1596000,1.309628,0.897826,10.556035,-0.645346,-1.791507,-0.469968
1600000,1.482011,0.890643,10.797850,-0.630080,-0.738072,-0.500503
1604000,1.546654,0.864307,11.037270,0.331753,0.071089,-0.637907
1608000,1.683124,0.893037,11.109096,1.476791,1.857348,-0.821113
1612000,1.675941,0.818817,10.927136,2.209615,4.422234,-1.340197
1616000,1.446098,0.802058,10.599131,2.224883,6.284829,-1.660808
1620000,1.407791,0.751779,10.627861,1.797401,7.155058,-1.447067
1624000,1.455675,0.837971,10.690110,1.522592,7.246661,-1.553938
1628000,1.496376,0.833182,10.500969,1.034043,7.307730,-1.294396
1632000,1.580173,0.835576,10.481815,0.545493,7.536737,-1.492869
1636000,1.620875,0.840365,10.575189,-0.004125,7.658875,-1.599739
1640000,1.551443,0.847547,10.656591,-0.172064,6.742845,-1.706609
1644000,1.587356,0.821211,10.891224,-0.110996,4.926051,-1.737144
1648000,1.678335,0.861913,10.931925,-0.019392,2.849715,-2.164625
1652000,1.714248,0.881066,11.042058,0.316485,0.483302,-2.805846
1656000,1.663970,0.933739,10.929531,0.805035,-1.623568,-3.340197
1660000,1.544260,0.912191,10.814610,0.820302,-3.180820,-3.813480
1664000,1.369483,0.955287,10.694899,1.034043,-3.852576,-3.859281
1668000,1.235408,1.067814,10.737994,0.469157,-4.218988,-3.553938
1672000,1.074997,1.043872,10.852917,0.652363,-3.852576,-3.019587
1676000,1.199495,1.130063,10.793061,0.560760,-2.875476,-2.347831
1680000,1.297657,1.072602,10.757148,0.545493,-0.631201,-1.767678
1684000,1.431733,1.094150,10.685322,0.285951,1.460402,-1.477602
1688000,1.379060,1.115698,10.642226,0.179081,3.078722,-1.462335
1692000,1.273715,1.170765,10.623073,-0.004125,2.880249,-1.111190
1696000,1.254562,1.218649,10.541670,-0.156797,1.826814,-0.622640
1700000,1.331176,1.089362,10.378864,-0.782751,0.987119,-0.363098
1704000,1.292869,1.142034,10.362105,-1.622446,0.468035,-0.302029
1708000,1.321599,1.118092,10.615891,-2.004125,0.529104,0.232322
1712000,1.367089,1.074997,10.627861,-2.004125,1.322997,0.491864
1716000,1.398214,1.103727,10.778696,-2.034660,2.971852,0.659803
1720000,1.522712,1.089362,10.783484,-1.820919,5.445135,0.736139
1724000,1.620875,1.067814,10.764331,-1.546110,7.414600,0.522398
1728000,1.628057,1.084573,10.599131,-1.576644,8.529103,0.293391
1732000,1.774103,1.051055,10.611102,-1.454507,9.170325,-0.195159
1736000,1.731008,1.051055,10.546458,-1.912522,7.994752,-0.973785
1740000,1.687912,1.036689,10.608707,-1.897255,5.857348,-1.385999
1744000,1.649605,1.024718,10.807426,-1.515576,3.292463,-1.798213
1748000,1.616086,1.048660,10.958261,-1.271301,1.613073,-2.103556
1752000,1.513135,1.060631,10.931925,-0.904888,0.361165,-2.317297
1756000,1.403002,1.120486,10.963050,-0.614812,-0.447995,-2.225693
1760000,1.350330,1.024718,10.948685,-0.217866,-1.302957,-2.073022
1764000,1.314417,1.015141,10.948685,-0.736950,-1.684637,-2.088289
1768000,1.280898,1.060631,11.010934,-0.462140,-1.379293,-2.057755
1772000,1.266533,1.024718,10.975020,-0.736950,-0.646469,-2.073022
1776000,1.165976,1.074997,11.020511,-0.614812,0.773379,-1.859281
1780000,1.115698,1.144428,11.092337,-0.416339,1.872615,-1.294396
1784000,1.122881,1.108515,10.975020,-0.217866,2.086356,-0.973785
1788000,1.125275,1.156399,10.814610,-0.813286,2.300096,-0.576838
1792000,1.036689,1.051055,10.716447,-1.362904,2.635974,-0.271495
1796000,1.010353,1.079785,10.625467,-2.523209,2.223760,0.400261
1800000,1.022324,0.948104,10.735600,-3.317102,2.605440,0.720871
1804000,0.919373,0.950498,10.958261,-4.126263,3.582539,1.056749
1808000,0.988805,1.091756,11.145009,-3.927789,4.849715,1.926978
1812000,1.065420,1.039083,11.441890,-3.332370,6.254295,2.400261
1816000,1.278504,0.972046,11.288661,-2.523209,8.071088,2.675070
1820000,1.319205,0.955287,11.255142,-1.836186,9.811546,2.659803
1824000,1.084573,0.931344,11.238382,-1.683514,10.239027,2.583467
1828000,0.873884,0.914585,11.171345,-1.607178,7.765746,3.209421
1832000,0.914585,0.936133,11.233594,-1.210232,5.124524,3.820108
1836000,0.931344,0.837971,10.931925,-1.133896,2.941318,4.033849
1840000,1.170765,0.873884,10.907983,-1.561377,1.017653,4.446063
1844000,1.491588,0.890643,10.943896,-2.065194,0.315363,3.911711
1848000,1.482011,0.816423,11.118672,-2.126262,0.010020,2.827742
1852000,1.412579,0.842759,11.334151,-1.897255,0.330631,2.507131
1856000,1.453280,0.847547,11.489774,-0.767484,1.765745,1.926978
1860000,1.350330,0.806846,11.317391,0.438623,4.300097,1.560566
1864000,1.300052,0.802058,11.061212,0.881371,6.971852,1.377360
1868000,1.168370,0.873884,10.955867,1.293585,8.422234,1.606368
1872000,1.154005,0.840365,10.843340,1.278317,8.055821,1.514765
1876000,1.096544,0.845153,10.821792,0.637096,6.559639,1.789574
1880000,1.139640,0.852336,10.807426,0.072211,5.552005,1.865910
1884000,1.316811,0.878672,10.907983,-0.294202,5.048188,1.820108
1888000,1.438915,0.905008,11.034876,0.377554,5.002387,1.682703
1892000,1.412579,0.773327,11.022904,0.896638,4.880249,1.789574
1896000,1.321599,0.842759,11.037270,1.201982,4.513837,1.468963
1900000,1.355118,0.811634,10.965444,1.553127,3.200860,1.392627
1904000,1.364695,0.849942,11.020511,2.041676,2.086356,1.072016
1908000,1.422156,0.837971,10.939108,2.484425,1.475669,0.736139
1912000,1.328782,0.861913,10.850522,2.713432,1.811547,0.278123
1916000,1.211466,0.816423,10.666168,2.591295,2.391699,0.552933
1920000,1.101333,0.895431,10.541670,2.408089,3.155058,0.873543
1924000,1.024718,1.017536,10.488997,1.263050,3.628341,1.331558
1928000,0.991199,0.964863,10.577583,0.728699,3.353531,2.018581
1932000,1.012747,0.938527,10.582372,-0.065194,3.231394,2.155986
1936000,1.022324,0.952892,10.627861,-0.675881,3.506203,2.552932
1940000,1.060631,1.034295,10.656591,-1.393438,3.292463,2.812474
1944000,1.027112,0.976834,10.735600,-1.500308,3.032921,3.010948
1948000,1.027112,0.995988,11.020511,-1.454507,2.483302,2.949879
1952000,1.077391,1.036689,11.250354,-1.149163,1.750478,3.270490
1956000,1.355118,1.000776,11.377247,-0.385804,1.628341,2.781940
1960000,1.592144,1.003170,11.353305,0.484424,2.834447,1.911711
1964000,1.479617,0.976834,11.281479,1.110379,3.903150,1.010948
1968000,1.213860,0.936133,11.269507,1.308852,4.147425,0.598734
1972000,1.058237,0.945710,11.209652,1.690531,3.506203,0.614001
1976000,1.036689,0.952892,11.209652,2.148547,1.185592,0.949879
1980000,1.039083,0.869095,11.116279,2.301218,-1.394560,1.377360
1984000,1.132457,0.835576,11.030087,1.843203,-3.989980,1.697971
1988000,1.278504,0.818817,11.082760,1.751600,-5.440361,1.530032
1992000,1.307234,0.811634,11.200075,1.430989,-5.883110,0.949879
1996000,1.209072,0.840365,11.336545,1.873737,-6.249522,0.766673
