time_us,ax,ay,az,gx,gy,gz
0,0.730232,0.055067,11.092337,6.972974,0.864982,-0.546304
4000,0.811634,0.047884,11.197681,7.675264,0.177959,-1.202793
8000,0.885855,0.026336,11.166556,8.301218,-0.188453,-1.645541
12000,0.905008,0.090980,11.049241,8.698165,-0.066316,-2.302029
16000,0.754174,0.086191,11.168951,8.728700,-0.142652,-2.500503
20000,0.790087,0.033519,11.056423,9.201982,0.132157,-2.805846
24000,0.675165,0.035913,10.967838,9.308852,0.697043,-3.156991
28000,0.502782,0.021548,10.670957,9.003509,1.292463,-3.126457
32000,0.421380,0.009577,10.443508,7.751600,1.903150,-2.836380
36000,0.169988,0.011971,10.386047,6.637096,2.254295,-2.286762
40000,0.110133,0.126893,10.524911,4.805035,1.292463,-1.462335
44000,0.191536,0.143652,10.529699,4.224883,0.483302,-0.500503
48000,0.299275,0.155623,10.668563,3.644730,0.254295,0.262856
52000,0.464475,0.110133,10.723629,2.942440,1.292463,0.736139
56000,0.493206,0.107739,10.714052,2.591295,2.681776,0.965146
60000,0.445322,0.158017,10.749966,2.514959,3.277195,1.178887
64000,0.517148,0.193930,10.759542,2.362287,2.697043,1.117818
68000,0.452504,0.186748,10.752359,1.995875,1.643608,0.919345
72000,0.653617,0.162806,10.917560,1.705798,0.315363,0.491864
76000,0.754174,0.186748,11.097125,1.553127,-1.348759,-0.363098
80000,0.835576,0.138864,11.295844,1.644730,-2.524331,-0.912716
84000,0.718261,0.227449,11.556811,2.698165,-2.906011,-1.416533
88000,0.622492,0.172383,11.516110,3.492058,-3.318224,-1.630274
92000,0.519542,0.105345,11.540052,4.484425,-3.272423,-1.813480
96000,0.438139,0.162806,11.384429,5.232516,-2.539598,-1.950884
100000,0.313640,0.055067,11.331757,5.492058,-1.867843,-1.752411
104000,0.385466,0.088585,11.231200,5.492058,-1.348759,-1.706609
108000,0.548272,0.117316,11.008539,4.942440,-0.707537,-1.737144
112000,0.787692,0.146046,10.862494,4.148547,-0.020514,-2.195159
116000,0.866701,0.237026,10.891224,3.278317,0.284829,-2.760045
120000,0.603339,0.167594,10.819398,2.682898,-0.051049,-3.050121
124000,0.402226,0.220267,10.819398,1.751600,-1.211354,-2.592106
128000,0.454898,0.256180,10.979809,1.507325,-2.127385,-1.966151
132000,0.383072,0.371101,11.128249,2.072211,-2.585400,-1.385999
136000,0.481235,0.292093,11.434708,3.003508,-2.386927,-1.004319
140000,0.763750,0.380678,11.365275,4.056943,-0.890743,-1.126457
144000,0.787692,0.366313,11.276690,5.003509,1.689409,-1.844014
148000,0.531513,0.339977,11.039664,5.003509,3.078722,-1.874548
152000,0.342371,0.306458,11.001357,4.759233,2.758112,-1.523403
156000,0.160412,0.272939,10.991780,4.988241,2.086356,-0.989052
160000,0.134075,0.251391,10.898406,4.530226,1.857348,-0.683709
164000,0.160412,0.289698,10.821792,4.285951,1.322997,0.155986
168000,0.234632,0.330400,10.855310,4.362287,0.651241,0.965146
172000,0.407014,0.277727,10.843340,3.980608,0.406966,1.087284
176000,0.433351,0.253785,10.654198,3.430989,-0.585400,1.148352
180000,0.459687,0.306458,10.759542,2.606562,-1.715171,1.270490
184000,0.313640,0.292093,10.773908,1.858470,-3.577766,1.224688
188000,0.392649,0.289698,10.867282,1.827936,-5.425095,1.713238
192000,0.629675,0.335188,10.876859,1.736333,-6.142652,1.484230
196000,0.821211,0.351948,10.963050,1.736333,-5.623568,1.377360
200000,0.895431,0.311246,10.864887,1.736333,-4.524331,0.705604
204000,0.854730,0.222661,10.903194,1.629462,-3.516698,0.232322
208000,0.770933,0.150835,10.814610,1.293585,-3.119751,-0.134090
212000,0.632069,0.244209,10.991780,1.293585,-3.486163,-0.011953
216000,0.742203,0.189142,11.015722,1.904272,-3.654102,-0.271495
220000,0.823605,0.177171,11.056423,2.545493,-3.302957,-0.408900
224000,0.907402,0.162806,10.891224,2.835569,-2.188453,-0.821113
228000,0.840365,0.062249,10.773908,2.774501,-1.348759,-1.370732
232000,0.586579,0.131681,10.685322,2.713432,-1.089217,-1.370732
236000,0.486023,0.081403,10.670957,2.621829,-1.486163,-1.309663
240000,0.471658,-0.002394,10.800244,2.423356,-2.341125,-1.187526
244000,0.497994,0.031125,10.790668,2.484425,-3.089217,-0.943251
248000,0.493206,-0.016759,10.706870,2.255417,-2.890743,-0.729510
252000,0.380678,-0.086191,10.661380,1.980608,-3.287690,-0.882182
256000,0.361524,-0.119710,10.694899,1.827936,-3.638835,-0.622640
260000,0.361524,-0.055067,10.539276,1.278317,-5.073949,-0.210426
264000,0.399832,-0.045490,10.647015,0.911905,-6.799140,0.064383
268000,0.447716,-0.047884,10.730812,0.606562,-8.173186,0.339192
272000,0.579397,-0.069432,10.809821,0.606562,-9.822042,0.323925
276000,0.761356,-0.110133,10.833763,0.972974,-9.699904,0.033849
280000,0.909797,-0.146046,10.800244,1.064577,-9.455629,-0.363098
284000,0.818817,-0.167594,10.639832,1.140913,-8.921278,-0.866915
288000,0.720655,-0.148441,10.699687,1.034043,-9.211354,-1.569205
292000,0.663194,-0.143652,10.960655,1.415722,-10.096850,-1.615006
296000,0.754174,-0.114922,11.183316,2.866104,-10.921278,-2.164625
300000,1.051055,-0.131681,11.130644,4.560760,-9.593034,-2.576838
304000,1.103727,-0.282516,10.977415,6.133279,-6.310591,-3.294396
308000,0.871489,-0.368707,10.678140,6.560760,-2.860209,-4.118823
312000,0.509965,-0.325611,10.635044,7.018775,-1.745705,-4.454701
316000,0.304064,-0.292093,10.493786,7.110379,-2.615934,-3.569205
320000,0.380678,-0.454898,10.421960,6.896638,-3.959446,-3.340197
324000,0.469264,-0.541090,10.405201,6.438623,-4.341125,-3.355464
328000,0.517148,-0.507571,10.457873,6.285951,-4.402194,-3.370732
332000,0.596156,-0.514753,10.421960,6.484425,-4.753339,-3.202793
336000,0.378284,-0.557849,10.314221,6.179081,-5.104484,-3.080655
340000,0.344765,-0.634463,10.158598,5.629463,-6.081583,-2.790579
344000,0.299275,-0.612916,10.125079,4.805035,-7.989980,-2.347831
348000,0.246603,-0.660800,10.144233,4.118012,-9.944179,-2.134090
352000,0.253785,-0.632069,10.146626,3.659997,-10.768606,-1.935617
356000,0.222661,-0.682347,10.307038,3.232516,-10.249522,-1.553938
360000,0.294487,-0.677559,10.314221,3.354653,-9.226622,-1.065388
364000,0.270545,-0.670376,10.141838,2.988241,-7.913644,-0.637907
368000,0.337582,-0.665588,10.196905,2.682898,-6.463263,-0.485235
372000,0.316035,-0.706290,9.964667,2.118012,-5.302957,-0.240961
376000,0.313640,-0.715866,9.765948,0.988241,-4.844942,-0.164625
380000,0.351948,-0.682347,9.763555,0.072211,-4.890743,0.049116
384000,0.490811,-0.663194,9.713276,-0.904888,-4.646469,-0.027220
388000,0.548272,-0.699107,9.634268,-1.973591,-4.402194,0.049116
392000,0.560243,-0.679953,9.770737,-2.782751,-3.928911,0.033849
396000,0.560243,-0.632069,9.864111,-3.576644,-3.837308,-0.240961
400000,0.644040,-0.615310,9.979033,-4.095729,-3.470896,0.018581
404000,0.758962,-0.675165,10.127473,-4.263667,-2.310591,-0.225693
408000,0.768539,-0.675165,10.089166,-4.904889,-0.539598,-0.592106
412000,0.785298,-0.644040,10.230424,-5.194965,1.063455,-0.851648
416000,0.622492,-0.732626,10.417171,-5.088095,1.506203,-1.050121
420000,0.636858,-0.730232,10.606314,-4.813286,1.460402,-1.126457
424000,0.682347,-0.732626,10.783484,-4.187331,1.414600,-1.004319
428000,0.787692,-0.672771,10.828975,-3.714049,0.956585,-1.431800
432000,0.979228,-0.639252,10.982203,-2.752217,0.574905,-1.584472
436000,1.000776,-0.646434,11.020511,-1.927789,0.132157,-2.347831
440000,0.967257,-0.713472,10.826580,-1.500308,-0.570133,-2.866915
444000,0.749385,-0.792481,10.649409,-1.286568,-1.730438,-3.187526
448000,0.505177,-0.782904,10.594342,-1.637713,-3.684637,-3.233327
452000,0.356736,-0.775721,10.651803,-1.790385,-6.035781,-2.729510
456000,0.371101,-0.761356,10.742783,-1.744583,-7.883110,-2.424167
460000,0.421380,-0.768539,10.807426,-1.851454,-8.020514,-2.088289
464000,0.452504,-0.790087,10.884041,-1.668247,-6.707537,-2.011953
468000,0.404620,-0.790087,10.838552,-1.423972,-4.860209,-1.721877
472000,0.232238,-0.871489,10.867282,-1.240766,-3.272423,-1.798213
476000,0.189142,-0.847547,10.903194,-0.981224,-1.867843,-1.553938
480000,0.143652,-0.833182,10.788273,-1.118629,-1.287690,-0.866915
484000,0.248997,-0.828394,10.761936,-0.996492,-0.035782,-0.546304
488000,0.280122,-0.916979,10.625467,-1.622446,0.605440,-0.332564
492000,0.349553,-0.871489,10.510546,-2.248400,0.849715,-0.240961
496000,0.361524,-0.818817,10.687716,-3.362904,0.101623,-0.134090
500000,0.244209,-0.689530,11.156980,-3.469774,-1.898377,0.155986
504000,0.502782,-0.579397,11.358093,-2.462140,-3.073950,0.476597
508000,0.852336,-0.600945,11.305421,-0.782751,-2.005247,0.247589
512000,1.017536,-0.577003,11.173739,0.087478,0.895516,-0.500503
516000,1.151611,-0.538695,10.852917,0.805035,3.277195,-1.431800
520000,1.015141,-0.495600,10.599131,1.217249,3.567272,-2.637907
524000,0.787692,-0.366313,10.539276,0.484424,1.384066,-2.851648
528000,0.778116,-0.349553,10.378864,0.056943,-1.776240,-3.370732
532000,0.761356,-0.361524,10.393229,-0.416339,-4.432728,-3.492869
536000,0.667982,-0.464475,10.426748,-0.889621,-6.234255,-3.767678
540000,0.644040,-0.452504,10.450690,-1.347636,-6.478529,-3.630274
544000,0.509965,-0.598550,10.412383,-1.775118,-6.478529,-3.721877
548000,0.325611,-0.593762,10.556035,-2.049927,-7.180820,-3.309663
552000,0.299275,-0.586579,10.714052,-2.477408,-7.669369,-3.385999
556000,0.308852,-0.713472,10.716447,-2.813286,-7.180820,-3.660808
560000,0.306458,-0.763750,10.785878,-2.462140,-4.875476,-3.737144
564000,0.093374,-0.871489,10.776301,-2.538476,-1.898377,-3.691342
568000,0.011971,-0.821211,10.723629,-2.385804,0.681776,-3.599739
572000,0.074220,-0.557849,10.730812,-2.431606,2.681776,-3.447068
576000,-0.019154,-0.471658,10.821792,-2.477408,3.582539,-3.279129
580000,0.033519,-0.469264,10.630256,-2.614812,3.200860,-2.851648
584000,0.035913,-0.543484,10.484209,-3.301835,2.071089,-2.469968
588000,0.079009,-0.464475,10.448297,-3.683514,0.941318,-2.210426
592000,0.105345,-0.351948,10.496181,-4.370538,-1.165553,-1.935617
596000,0.110133,-0.210690,10.520123,-4.752217,-4.402194,-1.279129
600000,0.136469,-0.198719,10.934319,-4.981225,-7.104484,-1.019587
604000,0.141258,-0.126893,11.238382,-4.614813,-9.822042,-1.034854
608000,0.165200,-0.088585,11.808203,-3.118629,-11.623569,-0.882182
612000,0.265756,-0.004788,11.980585,-1.027026,-12.005248,-0.592106
616000,0.442927,-0.093374,12.059594,1.278317,-10.524332,-0.897449
620000,0.399832,-0.158017,11.975797,3.079844,-7.806774,-1.095922
624000,0.237026,-0.174777,11.870452,5.171447,-6.524331,-1.401266
628000,-0.023942,-0.095768,11.585542,5.889005,-6.707537,-0.332564
632000,0.002394,-0.263362,11.283873,5.934806,-7.684637,0.171253
636000,0.287304,-0.411803,11.034876,5.278317,-9.241889,0.446062
640000,0.423774,-0.476446,10.931925,4.087478,-10.722805,0.323925
644000,0.402226,-0.521936,10.843340,2.698165,-12.356393,0.232322
648000,0.131681,-0.529119,10.860099,1.675264,-14.203721,0.522398
652000,0.002394,-0.639252,11.097125,1.095111,-15.898377,1.316291
656000,0.014365,-0.744597,11.166556,1.064577,-15.822042,2.064383
660000,0.181959,-0.723049,11.056423,1.263050,-14.157920,2.751406
664000,0.306458,-0.826000,10.998962,1.858470,-11.425095,3.331558
668000,0.555455,-0.869095,10.845734,2.102745,-9.394561,3.377360
672000,0.782904,-0.826000,10.503363,1.583661,-7.745705,2.827742
676000,0.885855,-0.828394,10.402806,0.530226,-6.188453,2.094917
680000,0.833182,-0.723049,10.283096,-0.324736,-5.760972,1.468963
684000,0.809240,-0.548272,10.383653,-0.599545,-5.974713,1.301024
688000,1.051055,-0.469264,10.364499,-0.477408,-5.486163,1.407894
692000,1.156399,-0.488417,10.218452,-0.401072,-3.944179,0.812474
696000,1.364695,-0.588974,10.005369,-1.088094,-2.707537,-0.011953
700000,1.163582,-0.490811,10.165780,-1.943056,-3.928911,-0.378365
704000,0.995988,-0.538695,10.431537,-2.630080,-7.012881,-0.546304
708000,0.993594,-0.483629,10.903194,-2.645346,-9.959446,-0.836380
712000,1.249773,-0.478840,11.214440,-2.263667,-9.928912,-1.431800
716000,1.288081,-0.521936,11.451467,-2.065194,-7.730438,-1.889816
720000,1.295263,-0.569820,11.640609,-1.378171,-4.249522,-2.760045
724000,1.070208,-0.586579,11.959038,-0.462140,-0.646469,-3.553938
728000,0.835576,-0.533907,12.002133,0.438623,1.750478,-3.477602
732000,0.952892,-0.634463,12.102690,0.866104,2.819180,-3.676075
736000,1.362301,-0.677559,12.018892,0.927172,4.727577,-4.469968
740000,1.742979,-0.699107,12.090718,1.110379,7.261929,-6.179892
744000,1.778892,-0.766145,12.042834,0.789768,9.781012,-8.607373
748000,1.537078,-0.723049,12.162544,1.064577,10.773378,-10.271496
752000,1.098939,-0.648829,12.294226,1.583661,10.590172,-11.095922
756000,0.861913,-0.727837,12.263102,2.652363,9.643607,-11.004320
760000,0.811634,-0.699107,12.145785,3.537859,8.941318,-10.347831
764000,1.043872,-0.754174,11.908759,4.072211,9.338264,-10.256228
768000,1.089362,-0.751779,11.640609,3.904272,9.384066,-10.439434
772000,0.986411,-0.787692,11.580753,3.034043,8.239027,-10.851648
776000,0.969652,-0.751779,11.607090,2.423356,6.468035,-10.744778
780000,0.945710,-0.732626,11.765107,2.270684,5.277195,-11.126457
784000,1.058237,-0.799663,11.815386,2.301218,5.597806,-11.569205
788000,1.185130,-0.663194,11.705252,3.003508,7.490936,-12.561572
792000,1.007959,-0.560243,11.494562,3.583661,9.414599,-12.882182
796000,0.543484,-0.488417,11.209652,3.507325,9.139791,-13.050121
800000,0.253785,-0.442927,11.042058,3.308852,6.666509,-12.805846
804000,0.038307,-0.308852,10.975020,2.560760,2.437501,-11.630274
808000,0.026336,-0.359130,11.030087,2.011142,-1.028148,-11.233328
812000,0.088585,-0.354342,11.398794,1.980608,-3.898377,-10.698977
816000,0.076614,-0.280122,11.674128,2.270684,-5.608301,-10.622641
820000,0.071826,-0.193930,11.903971,2.545493,-4.906011,-10.561572
824000,0.248997,0.555455,11.566388,7.110379,-6.463263,-9.996686
828000,-0.004788,-0.610521,13.285425,9.049310,-4.264789,-10.027221
832000,0.210690,0.021548,12.217611,12.743966,-1.287690,-9.874549
836000,0.162806,0.071826,12.301409,14.377554,1.735211,-9.416533
840000,-0.177171,-0.258574,12.124237,16.652363,3.643608,-8.897449
844000,0.328006,0.225055,10.773908,12.759233,5.613073,-8.805846
848000,0.265756,0.143652,11.286267,15.079844,2.544371,-7.828747
852000,0.497994,0.390255,10.692505,12.072210,-0.341125,-7.538671
856000,0.921768,0.318429,10.658986,9.095112,-2.890743,-7.523403
860000,1.359907,0.497994,10.486604,6.927173,-5.928911,-8.088289
864000,1.376666,0.126893,10.790668,4.759233,-7.226621,-8.485235
868000,1.726219,0.933739,10.144233,2.438623,-9.638836,-9.447068
872000,1.455675,0.107739,11.669339,4.911905,-10.677003,-11.004320
876000,1.635240,0.873884,10.795456,3.965340,-11.211354,-11.492869
880000,1.074997,0.117316,12.119449,4.942440,-11.898377,-11.431801
884000,1.189918,0.632069,11.647791,5.354653,-13.257156,-11.599740
888000,1.146823,0.567426,12.083536,6.545493,-14.356393,-11.584473
892000,1.158794,0.160412,12.124237,7.186714,-13.791507,-12.347831
896000,1.122881,0.409408,11.805809,6.896638,-13.669370,-12.714244
900000,1.086968,0.416591,11.908759,7.827936,-14.677003,-12.714244
904000,0.778116,0.227449,11.738770,5.827936,-13.989981,-12.943251
908000,0.658405,0.055067,11.896789,5.980608,-13.852576,-13.065389
912000,0.596156,0.184354,11.865664,5.110379,-12.631202,-13.034854
916000,0.371101,0.189142,11.841722,5.064577,-9.974713,-12.637908
920000,0.208296,0.232238,11.611878,4.606562,-7.104484,-12.317297
924000,0.067038,0.229843,11.643003,3.797401,-3.867843,-11.569205
928000,-0.093374,0.289698,11.678916,3.736333,-1.654102,-10.912717
932000,-0.119710,0.323217,11.355699,2.408089,0.529104,-10.134090
936000,-0.150835,0.328006,11.384429,2.362287,2.376432,-9.477602
940000,-0.258574,0.354342,11.475409,2.118012,3.216127,-9.019587
944000,-0.275333,0.416591,11.573571,1.308852,3.918417,-7.966151
948000,-0.253785,0.629675,11.982980,3.201982,3.048188,-7.263861
952000,0.016759,0.591368,12.176909,4.408089,2.193226,-6.943251
956000,0.478840,0.421380,12.303802,8.774501,2.758112,-6.317297
960000,1.029507,0.608127,11.733982,9.385188,4.987119,-7.691342
964000,0.751779,0.536301,11.480197,10.026409,4.880249,-7.645541
968000,0.579397,0.758962,10.972627,9.492058,1.063455,-7.752411
972000,0.184354,0.490811,11.458650,9.797401,-5.974713,-6.821113
976000,0.344765,0.665588,11.027693,8.240149,-10.844942,-5.935617
980000,0.696713,0.718261,11.075577,8.530226,-14.722805,-5.111189
984000,0.847547,0.763750,11.142614,9.308852,-16.615934,-4.882182
988000,0.924162,0.720655,11.113884,8.545493,-16.020514,-4.851647
992000,1.034295,0.797269,10.852917,8.011142,-17.302958,-4.698976
996000,0.995988,0.720655,10.737994,7.186714,-19.150286,-5.141724
1000000,0.972046,0.584185,10.824186,6.591295,-21.135019,-5.477602
1004000,0.883460,0.715866,11.089942,5.934806,-22.493797,-5.782945
1008000,1.156399,0.653617,11.415554,6.591295,-22.188454,-5.752411
1012000,1.651999,0.596156,11.518504,7.568394,-18.371660,-6.714243
1016000,1.752556,0.596156,11.350910,8.347020,-12.432729,-8.469969
1020000,1.515530,0.644040,10.931925,8.285952,-7.348759,-9.615006
1024000,1.108515,0.636858,10.539276,7.324119,-5.165553,-10.317297
1028000,0.792481,0.603339,10.098742,5.095111,-5.058682,-10.408900
1032000,0.440533,0.694318,9.911995,2.530226,-5.577766,-10.118824
1036000,0.237026,0.679953,9.758766,-0.675881,-6.585400,-9.095922
1040000,0.143652,0.689530,9.914390,-3.225499,-7.470896,-8.103557
1044000,0.289698,0.811634,9.962274,-5.530843,-7.180820,-6.821113
1048000,0.320823,0.768539,10.285490,-6.904889,-6.661736,-5.889815
1052000,0.471658,0.943315,10.453085,-8.080462,-5.364026,-5.477602
1056000,0.469264,0.866701,10.919954,-7.393438,-4.814407,-5.294395
1060000,0.682347,0.940921,11.142614,-6.065194,-2.692270,-5.645541
1064000,0.806846,0.885855,11.322180,-4.462141,1.353531,-6.500503
1068000,0.586579,0.902614,11.173739,-2.431606,5.093989,-7.004319
1072000,0.330400,0.881066,11.219229,-0.935423,7.246661,-6.943251
1076000,0.335188,0.976834,11.056423,0.805035,7.399333,-6.027220
1080000,0.229843,0.711078,11.046846,1.950073,6.300097,-5.447067
1084000,0.184354,0.849942,10.704475,0.850837,3.826814,-4.515770
1088000,0.241814,0.754174,10.536881,1.293585,0.529104,-3.156991
1092000,0.481235,0.548272,10.493786,-0.950690,-3.180820,-2.195159
1096000,0.555455,0.577003,10.706870,-2.156797,-8.539598,-1.645541
1100000,0.895431,0.675165,11.159374,-2.553744,-14.035782,-1.309663
1104000,1.077391,0.605733,11.518504,-2.278934,-18.066317,-1.889816
1108000,1.233014,0.696713,11.317391,-1.072828,-20.356392,-2.607373
1112000,1.276109,0.672771,11.252748,-1.011759,-21.150286,-3.370732
1116000,1.113304,0.739808,11.307815,-0.187331,-21.180820,-3.905083
1120000,0.914585,0.725443,11.219229,0.453890,-21.669371,-4.042487
1124000,0.600945,0.641646,11.133038,0.576027,-22.615934,-3.828747
1128000,0.718261,0.708684,10.953473,-1.194965,-22.570133,-4.011953
1132000,1.077391,0.823605,10.939108,-1.927789,-22.081583,-3.615006
1136000,0.847547,0.837971,10.793061,-4.141530,-20.539598,-3.584472
1140000,0.641646,0.957681,10.915166,-5.881988,-19.608301,-3.294396
1144000,0.670376,1.024718,11.377247,-6.217866,-18.799141,-3.065388
1148000,0.672771,1.139640,11.640609,-5.439240,-17.119751,-3.019587
1152000,0.826000,1.103727,11.607090,-4.095729,-13.547233,-2.622640
1156000,0.816423,1.091756,11.499351,-2.935423,-9.058682,-2.454701
1160000,1.015141,1.414973,11.247959,-2.355270,-4.509064,-3.126457
1164000,0.799663,0.933739,11.575965,-0.996492,-0.951812,-3.080655
1168000,0.553061,1.326388,10.817003,-0.675881,0.315363,-2.561571
1172000,0.418985,1.276109,10.840945,-2.217866,0.223760,-1.691342
1176000,0.519542,1.074997,11.075577,-1.912522,-0.875476,-0.943251
1180000,0.653617,1.266533,11.185710,-2.752217,-0.615934,-0.454701
1184000,0.665588,1.213860,11.513716,-1.423972,0.315363,0.033849
1188000,0.725443,1.216254,11.233594,-1.133896,1.781012,0.079650
1192000,0.639252,1.043872,11.542446,-0.446873,2.803913,0.598734
1196000,0.763750,1.161188,11.621455,0.240150,2.712310,0.705604
1200000,0.744597,1.055843,11.791444,1.186714,1.475669,0.827742
1204000,0.842759,1.031901,11.635820,1.507325,0.269562,0.751406
1208000,1.019930,1.000776,11.599907,1.614195,-1.135018,0.140719
1212000,1.161188,1.034295,11.410766,1.629462,-2.585400,-0.271495
1216000,1.194707,1.060631,11.295844,0.988241,-4.432728,-1.065388
1220000,1.127669,1.022324,11.142614,-0.126262,-6.173186,-1.828747
1224000,0.936133,0.972046,11.152191,-0.996492,-8.142652,-2.592106
1228000,0.699107,1.051055,11.252748,-1.836186,-9.623569,-2.469968
1232000,0.421380,1.048660,11.611878,-1.378171,-11.211354,-1.859281
1236000,0.497994,1.168370,11.959038,-0.187331,-11.486164,-0.943251
1240000,0.732626,1.175553,12.057199,1.385188,-9.730438,-0.179892
1244000,0.972046,1.118092,11.801021,2.377554,-7.470896,-0.363098
1248000,0.974440,1.125275,11.571177,3.079844,-5.272423,-0.698976
1252000,0.964863,1.350330,11.425131,2.682898,-4.921278,-1.248594
1256000,0.766145,1.419762,11.552023,4.759233,-6.860209,-0.790579
1260000,0.648829,0.854730,11.769896,1.583661,-6.081583,-0.607373
1264000,0.509965,0.457293,12.342110,4.805035,-5.837308,0.232322
1268000,0.964863,1.323994,11.176133,0.606562,-3.119751,0.079650
1272000,1.022324,0.837971,11.875240,4.133279,-1.883110,0.476597
1276000,1.154005,1.103727,11.262324,3.843203,-1.577766,0.339192
1280000,1.328782,1.017536,11.317391,2.148547,-0.707537,0.094917
1284000,1.273715,0.948104,11.281479,2.179081,-1.516698,-0.515770
1288000,1.309628,1.077391,11.259931,0.774501,-3.043415,-0.821113
1292000,1.288081,1.005565,11.552023,1.522592,-4.280056,-0.821113
1296000,1.465251,1.055843,11.482592,2.148547,-3.638835,-0.729510
1300000,1.616086,1.010353,11.324574,3.125646,-1.898377,-0.836380
1304000,1.726219,0.960075,11.291056,3.598928,0.544371,-1.569205
1308000,1.582567,1.010353,10.984597,3.766867,1.216127,-2.118823
1312000,1.357512,1.125275,10.673351,2.576027,-0.906011,-2.240961
1316000,1.606509,1.067814,10.568007,1.003508,-4.417461,-2.195159
1320000,2.619257,0.667982,11.128249,3.919539,-1.287690,-3.798213
1324000,2.925714,0.816423,10.599131,3.690531,4.926051,-6.683709
1328000,2.554613,0.742203,10.747571,4.637096,9.994752,-8.683709
1332000,2.020706,0.835576,10.556035,5.339386,10.635974,-9.431801
1336000,1.874660,0.842759,10.532093,5.354653,10.101623,-9.782946
1340000,1.889025,0.826000,10.565612,5.492058,8.254294,-11.156992
1344000,1.695095,0.758962,10.261548,5.247783,6.666509,-11.950885
1348000,1.474828,0.775721,10.211270,4.377554,5.185593,-12.134090
1352000,1.379060,0.864307,10.350134,3.965340,4.651241,-11.615006
1356000,1.367089,0.861913,10.472239,3.965340,4.895516,-11.508137
1360000,1.300052,0.739808,10.330980,3.919539,4.559639,-11.095922
1364000,1.091756,0.665588,10.160992,3.003508,4.758111,-11.141725
1368000,1.142034,0.787692,9.813833,1.308852,4.269562,-10.989053
1372000,1.034295,0.615310,10.132261,0.972974,2.803913,-10.836381
1376000,0.957681,0.811634,10.498574,-0.340003,0.361165,-10.592106
1380000,1.024718,0.802058,10.824186,1.079844,-1.883110,-9.737144
1384000,1.304840,0.694318,11.049241,0.957707,-1.043415,-9.813480
1388000,1.422156,0.742203,11.006145,2.713432,1.292463,-10.363098
1392000,1.209072,0.629675,11.025299,3.522592,5.124524,-10.485236
1396000,0.974440,0.773327,10.625467,4.209615,8.208493,-10.363098
1400000,0.814029,0.586579,10.790668,3.980608,9.918416,-10.042488
1404000,0.773327,0.641646,10.670957,4.285951,10.406966,-9.508137
1408000,0.806846,0.730232,10.618284,4.606562,10.635974,-8.882182
1412000,0.964863,0.612916,10.263943,4.347020,10.727577,-8.332563
1416000,0.921768,0.660800,10.170568,3.293585,11.109256,-8.317297
1420000,0.852336,0.639252,10.089166,2.209615,10.697042,-8.027221
1424000,0.814029,0.691924,10.333375,1.553127,8.956584,-7.660808
1428000,0.723049,0.687136,10.553641,1.461524,6.132157,-7.248594
1432000,0.902614,0.703895,10.723629,2.240149,3.490936,-6.866915
1436000,1.017536,0.746991,10.776301,3.537859,2.452768,-6.882182
1440000,1.036689,0.682347,10.699687,4.576027,2.651241,-7.050121
1444000,0.988805,0.706290,10.378864,5.247783,3.429867,-6.927983
1448000,0.739808,0.749385,10.129868,5.110379,3.017654,-6.546304
1452000,0.691924,0.742203,9.878476,4.591295,1.674142,-6.515769
1456000,0.787692,0.718261,9.636662,3.003508,-0.218988,-6.057755
1460000,0.814029,0.725443,9.689334,1.583661,-2.005247,-6.134090
1464000,0.878672,0.725443,9.792285,0.362287,-3.669369,-5.981419
1468000,0.780510,0.766145,9.859323,-0.309469,-5.089217,-5.828747
1472000,0.735020,0.691924,10.007763,-0.736950,-5.455629,-5.569205
1476000,0.766145,0.735020,9.967062,-1.179698,-4.768606,-5.309663
1480000,0.857124,0.670376,9.931149,-1.317102,-3.562499,-4.836380
1484000,0.715866,0.622492,10.024523,-1.546110,-2.692270,-5.019587
1488000,0.548272,0.517148,10.232818,-2.034660,-2.738072,-4.347831
1492000,0.438139,0.565032,10.388441,-2.278934,-3.302957,-3.263861
1496000,0.617704,0.622492,10.453085,-2.523209,-2.738072,-2.546304
1500000,0.924162,0.577003,10.453085,-2.843820,-1.180820,-2.225693
1504000,1.039083,0.486023,10.266336,-3.347636,1.704676,-2.057755
1508000,1.003170,0.478840,10.292673,-4.309469,3.689409,-2.057755
1512000,0.861913,0.495600,10.304645,-5.500309,4.162692,-1.844014
1516000,0.742203,0.450110,10.570400,-6.507942,3.643608,-1.462335
1520000,0.830788,0.488417,10.855310,-6.843820,2.315363,-1.294396
1524000,1.139640,0.428562,11.137826,-6.477407,2.040554,-1.050121
1528000,1.407791,0.385466,11.180922,-5.851454,2.926050,-1.828747
1532000,1.395820,0.383072,11.156980,-5.301835,3.216127,-2.408900
1536000,1.063026,0.347159,11.128249,-5.149163,1.429867,-2.637907
1540000,0.907402,0.375890,11.075577,-5.164431,-2.967079,-2.210426
1544000,0.931344,0.354342,11.226412,-5.072827,-7.837308,-2.042487
1548000,1.067814,0.277727,11.291056,-5.042294,-10.890744,-2.103556
1552000,1.218649,0.220267,11.279084,-4.782751,-11.730438,-2.515770
1556000,1.211466,0.306458,11.336545,-4.630079,-10.615934,-2.897449
1560000,1.326388,0.296881,11.530476,-4.095729,-8.768606,-3.324930
1564000,1.182736,0.344765,11.386824,-3.881988,-6.631201,-3.706610
1568000,1.211466,0.268151,11.252748,-3.469774,-4.829675,-4.103556
1572000,1.266533,0.399832,11.032481,-3.683514,-3.913644,-4.760045
1576000,1.218649,0.337582,11.137826,-4.110995,-3.058682,-5.523403
1580000,1.055843,0.270545,11.137826,-4.614813,-2.844942,-5.966151
1584000,0.916979,0.335188,11.240777,-4.920156,-3.135018,-6.240961
1588000,0.806846,0.354342,11.197681,-4.782751,-2.997614,-6.149357
1592000,0.799663,0.337582,11.183316,-4.569011,-1.379293,-5.645541
1596000,0.493206,0.244209,11.082760,-4.614813,-0.386927,-5.080655
1600000,0.404620,0.191536,11.410766,-4.584278,-0.554866,-4.363098
1604000,0.620098,0.260968,11.693281,-3.988858,-2.005247,-3.676075
1608000,1.048660,0.095768,11.707646,-3.256034,-2.386927,-3.584472
1612000,1.326388,-0.004788,11.540052,-2.691148,-1.272423,-4.210426
1616000,1.206678,-0.047884,11.556811,-2.828552,-0.539598,-5.370731
1620000,0.957681,0.004788,11.765107,-2.553744,-0.799140,-5.584472
1624000,0.826000,-0.021548,11.935096,-1.607178,-1.776240,-5.447067
1628000,0.742203,-0.134075,12.315774,-0.767484,-2.997614,-5.706609
1632000,0.972046,-0.052672,12.485762,1.095111,-3.684637,-5.599739
1636000,1.292869,-0.177171,12.729970,3.339386,-3.699904,-5.599739
1640000,1.441309,-0.124498,12.483368,5.064577,-1.073950,-6.760045
1644000,1.273715,-0.186748,12.243947,6.301218,0.849715,-7.523403
1648000,0.933739,-0.114922,11.985373,7.003509,1.567272,-8.073022
1652000,0.689530,-0.031125,11.935096,7.339386,0.483302,-8.134090
1656000,0.646434,-0.019154,11.769896,7.461524,-0.386927,-8.027221
1660000,0.624887,-0.014365,11.793838,7.751600,-0.310591,-7.492869
1664000,0.665588,0.045490,11.698070,8.148546,-0.096850,-7.538671
1668000,0.751779,0.105345,11.686098,8.652364,1.200860,-7.111189
1672000,0.651223,0.150835,11.528081,9.064577,2.376432,-6.882182
1676000,0.548272,0.241814,11.190498,9.095112,3.277195,-6.515769
1680000,0.450110,0.241814,10.984597,8.957706,3.628341,-5.798213
1684000,0.438139,0.272939,10.663774,8.133280,3.658875,-5.141724
1688000,0.493206,0.234632,10.364499,7.201982,3.857348,-4.317297
1692000,0.577003,0.354342,10.098742,5.446257,3.384066,-4.073022
1696000,0.603339,0.366313,10.249578,4.255417,2.239028,-3.782945
1700000,0.572214,0.390255,10.268731,3.034043,0.177959,-3.523403
1704000,0.660800,0.402226,10.357317,2.301218,-0.860209,-3.050121
1708000,0.660800,0.581791,10.268731,1.934806,0.208493,-2.698976
1712000,0.888249,0.462081,10.120291,1.598928,3.078722,-2.805846
1716000,0.646434,0.541090,9.964667,0.896638,6.010020,-2.531037
1720000,0.502782,0.454898,9.742006,-0.095728,8.086355,-1.905083
1724000,0.562637,0.466869,9.550470,-1.317102,9.109256,-1.385999
1728000,0.517148,0.246603,9.631873,-2.996492,8.193226,-0.851648
1732000,0.483629,0.172383,10.026917,-4.492675,5.643608,-0.760045
1736000,0.677559,0.289698,10.766725,-4.431606,0.452768,-0.332564
1740000,1.146823,0.100556,11.449073,-2.446873,-5.287690,-0.515770
1744000,1.371878,0.040701,11.786655,0.453890,-8.173186,-1.431800
1748000,1.517924,0.040701,11.700463,3.125646,-9.226622,-2.500503
1752000,1.467646,-0.069432,11.370064,5.110379,-9.516698,-3.660808
1756000,1.180341,-0.167594,11.070788,6.087478,-9.043416,-4.515770
1760000,0.811634,-0.083797,10.781090,5.766867,-9.165553,-4.912716
1764000,0.603339,-0.112527,10.905589,4.942440,-10.005248,-4.729510
1768000,0.581791,-0.131681,11.037270,4.056943,-10.417461,-4.164625
1772000,0.814029,-0.138864,11.137826,3.568394,-10.005248,-3.752411
1776000,0.914585,-0.086191,11.396400,2.698165,-7.699903,-3.859281
1780000,0.873884,-0.090980,11.511322,2.881371,-5.883110,-3.477602
1784000,0.735020,0.002394,11.602302,3.110379,-4.356392,-3.737144
1788000,0.672771,0.007183,11.427525,3.873737,-2.951812,-3.645541
1792000,0.727837,0.016759,11.389217,4.514959,-1.516698,-3.828747
1796000,0.615310,0.057461,11.269507,5.049310,0.468035,-3.981419
1800000,0.675165,0.071826,11.022904,5.369921,2.330631,-3.599739
1804000,0.653617,0.143652,10.929531,4.911905,3.536737,-3.431800
1808000,0.553061,0.234632,10.759542,4.072211,3.918417,-3.141724
1812000,0.469264,0.284910,10.702082,3.232516,3.842081,-2.683709
1816000,0.426168,0.248997,10.589554,2.316485,3.093989,-2.210426
1820000,0.306458,0.263362,10.635044,1.644730,1.750478,-1.462335
1824000,0.294487,0.318429,10.568007,1.430989,1.032921,-0.729510
1828000,0.383072,0.344765,10.438720,1.049310,1.170325,0.094917
1832000,0.411803,0.356736,10.402806,0.698165,2.391699,0.614001
1836000,0.306458,0.395043,10.129868,-0.034660,3.353531,1.285757
1840000,0.505177,0.311246,10.060435,-1.103362,3.719944,1.789574
1844000,0.423774,0.205901,10.194510,-2.034660,2.681776,2.064383
1848000,0.569820,0.239420,10.273520,-3.179698,1.017653,2.629268
1852000,0.763750,0.253785,10.668563,-3.408705,-1.913644,3.072016
1856000,0.909797,0.299275,10.843340,-3.271301,-5.104484,2.751406
1860000,1.007959,0.258574,10.893618,-3.042293,-6.218987,2.308658
1864000,0.897826,0.301669,10.797850,-2.385804,-6.386927,1.835375
1868000,0.806846,0.263362,10.922348,-1.378171,-6.035781,1.743772
1872000,0.749385,0.284910,10.809821,-0.385804,-4.860209,1.774307
1876000,0.660800,0.287304,10.879252,-0.156797,-3.043415,2.018581
1880000,0.706290,0.292093,10.951078,0.362287,-0.997614,2.110184
1884000,0.821211,0.337582,10.900801,0.453890,0.529104,2.217055
1888000,0.833182,0.359130,10.802638,0.316485,1.872615,2.308658
1892000,0.751779,0.328006,10.690110,0.056943,2.284829,2.446062
1896000,0.644040,0.244209,10.663774,-0.446873,1.155058,2.583467
1900000,0.617704,0.339977,10.572795,-0.904888,-0.600667,2.995681
1904000,0.538695,0.332794,10.565612,-0.904888,-1.699904,3.346826
1908000,0.593762,0.277727,10.541670,-0.706415,-2.112118,3.774307
1912000,0.665588,0.241814,10.524911,-1.210232,-1.684637,3.926979
1916000,0.900220,0.220267,10.426748,-1.393438,0.010020,4.339192
1920000,0.940921,0.174777,10.330980,-2.462140,1.689409,4.110185
1924000,0.878672,0.210690,10.362105,-3.256034,2.162692,4.217055
1928000,0.909797,0.198719,10.354922,-4.126263,2.605440,4.018581
1932000,0.837971,0.169988,10.445902,-5.118629,2.574905,4.003314
1936000,0.770933,0.196325,10.522516,-5.256034,1.979486,4.079650
1940000,0.840365,0.081403,10.658986,-5.576645,1.322997,4.278123
1944000,1.055843,0.098162,10.931925,-5.179698,1.261928,3.881177
1948000,1.012747,0.067038,11.039664,-4.446874,1.216127,3.530032
1952000,1.113304,0.043096,11.295844,-3.469774,1.399333,2.843009
1956000,1.209072,0.052672,11.563994,-1.790385,1.078722,1.881177
1960000,1.422156,0.107739,11.611878,0.118012,1.139791,1.133085
1964000,1.582567,-0.014365,11.513716,1.889004,1.826814,-0.225693
1968000,1.357512,-0.047884,11.231200,2.957707,1.628341,-1.095922
1972000,0.905008,-0.119710,10.951078,2.637096,-0.478530,-1.355464
1976000,0.636858,-0.237026,10.879252,1.919539,-4.310591,-1.065388
1980000,0.727837,-0.191536,10.694899,0.576027,-7.791507,-0.958518
1984000,0.723049,-0.141258,10.702082,-1.347636,-10.539598,-0.943251
1988000,0.713472,-0.155623,11.104307,-2.065194,-11.486164,-0.744777
1992000,0.562637,-0.239420,11.437101,-2.828552,-12.112118,-0.317297
1996000,0.711078,-0.136469,11.643003,-2.294202,-10.738072,0.094917
