time_us,ax,ay,az,gx,gy,gz
0,0.555455,0.064643,11.200075,3.751600,-0.188453,0.827742
4000,0.612916,0.062249,10.982203,3.843203,0.422234,1.133085
8000,0.591368,0.088585,10.910378,3.598928,1.048188,1.316291
12000,0.555455,0.071826,10.965444,3.736333,1.170325,1.362093
16000,0.555455,0.119710,10.922348,3.614195,0.803913,1.514765
20000,0.658405,0.071826,10.927136,3.308852,-0.173186,1.575833
24000,0.746991,0.031125,10.948685,2.957707,-0.768606,1.301024
28000,0.864307,0.031125,10.869676,2.591295,-1.501431,0.873543
32000,0.794875,-0.023942,10.879252,2.469157,-2.234255,0.094917
36000,0.737414,0.000000,11.032481,2.560760,-3.012881,-0.011953
40000,0.749385,0.057461,11.032481,2.652363,-3.989980,-0.103556
44000,0.761356,0.074220,11.214440,3.293585,-4.417461,-0.408900
48000,0.653617,-0.057461,11.140221,3.568394,-4.295324,-0.592106
52000,0.581791,-0.043096,11.056423,3.659997,-3.364026,-0.408900
56000,0.524330,-0.004788,11.020511,3.827936,-3.104484,-0.225693
60000,0.512359,0.047884,10.943896,4.148547,-2.371660,0.018581
64000,0.490811,-0.028730,10.850522,3.934806,-2.249522,0.186520
68000,0.478840,0.038307,10.828975,3.476791,-2.310591,0.232322
72000,0.505177,0.031125,10.848128,3.171447,-2.982346,0.354459
76000,0.600945,0.021548,10.814610,2.988241,-3.165553,0.354459
80000,0.596156,0.002394,10.807426,3.095111,-3.180820,0.430795
84000,0.557849,0.052672,10.898406,3.140913,-2.814408,0.629268
88000,0.588974,0.045490,10.805033,3.140913,-2.402194,0.751406
92000,0.723049,-0.016759,10.749966,2.911905,-1.470896,0.949879
96000,0.713472,0.045490,10.658986,2.514959,-0.646469,0.980413
100000,0.612916,0.059855,10.587160,1.965340,0.010020,1.133085
104000,0.560243,0.011971,10.522516,1.354653,0.269562,1.392627
108000,0.687136,-0.112527,10.639832,0.545493,0.101623,1.636902
112000,0.653617,-0.076614,10.726024,0.194348,0.162692,1.560566
116000,0.665588,-0.047884,10.862494,0.026409,-0.157919,1.804841
120000,0.732626,-0.071826,10.958261,0.499691,-0.234255,1.896444
124000,0.787692,-0.114922,11.063606,1.110379,-0.173186,1.530032
128000,0.828394,-0.134075,10.955867,1.721066,-0.341125,1.575833
132000,0.691924,-0.155623,11.137826,2.056943,-0.493797,1.530032
136000,0.735020,-0.241814,11.219229,2.957707,-0.402194,1.285757
140000,0.684742,-0.287304,11.049241,3.049310,-0.264789,1.102551
144000,0.732626,-0.251391,11.092337,3.079844,-0.173186,1.056749
148000,0.723049,-0.311246,11.109096,3.140913,0.116890,1.010948
152000,0.667982,-0.253785,11.037270,2.988241,0.666508,1.117818
156000,0.653617,-0.213084,11.171345,3.232516,0.010020,1.362093
160000,0.821211,-0.244209,11.274296,3.583661,-0.173186,1.682703
164000,0.890643,-0.198719,11.188105,4.056943,-0.020514,1.530032
168000,1.082179,-0.237026,11.118672,4.148547,0.208493,1.331558
172000,1.249773,-0.251391,11.094730,4.148547,1.048188,0.415528
176000,1.194707,-0.272939,11.111490,4.072211,1.429867,-0.286762
180000,1.139640,-0.241814,11.075577,4.347020,1.368798,-0.897449
184000,1.134852,-0.354342,11.044453,4.194348,1.017653,-1.050121
188000,1.211466,-0.351948,11.015722,4.438623,1.765745,-1.874548
192000,1.043872,-0.462081,11.010934,4.026409,2.468035,-1.859281
196000,0.936133,-0.497994,11.094730,3.950073,3.246661,-2.118823
200000,0.735020,-0.574608,11.190498,3.583661,2.834447,-1.813480
204000,0.718261,-0.615310,11.267113,3.568394,2.422234,-1.553938
208000,0.691924,-0.787692,11.283873,3.797401,2.590173,-1.508136
212000,0.615310,-0.881066,11.214440,3.568394,3.399333,-1.248594
216000,0.440533,-0.916979,11.298238,3.461524,3.826814,-0.882182
220000,0.325611,-1.091756,11.269507,2.866104,4.315363,-0.103556
224000,0.280122,-1.118092,11.326968,2.591295,4.574905,0.491864
228000,0.270545,-1.168370,11.314998,2.087478,5.139791,1.407894
232000,0.205901,-1.228225,11.382035,1.690531,6.269562,1.988047
236000,0.217872,-1.173159,11.482592,1.369921,7.460402,2.843009
240000,0.332794,-1.280898,11.408371,1.278317,8.727577,3.606368
244000,0.718261,-1.288081,11.573571,1.339386,10.803913,3.575833
248000,0.828394,-1.256956,11.638214,2.179081,13.475668,3.178887
252000,0.799663,-1.326388,11.585542,2.698165,15.887882,3.026215
256000,0.737414,-1.307234,11.396400,3.064577,17.048187,3.209421
260000,0.687136,-1.273715,11.530476,3.522592,17.826813,3.270490
264000,0.763750,-1.240196,11.561600,4.270684,18.025288,3.545299
268000,0.912191,-1.156399,11.674128,5.736333,19.078722,3.667437
272000,1.017536,-1.240196,11.516110,6.728699,20.666508,3.682703
276000,1.120486,-1.240196,11.463438,7.919539,22.788645,3.621635
280000,1.288081,-1.233014,11.353305,9.201982,25.735210,3.423162
284000,1.350330,-1.221043,11.176133,9.904272,27.658875,2.659803
288000,1.544260,-1.244985,10.831368,10.514958,28.956585,1.988047
292000,1.613692,-1.197101,10.730812,10.774501,29.216125,0.919345
296000,1.477222,-1.199495,10.575189,10.698165,29.277195,-0.103556
300000,1.379060,-1.187524,10.474632,10.881371,29.155058,-0.897449
304000,1.338359,-1.146823,10.393229,11.003509,28.758112,-1.324930
308000,1.352724,-1.142034,10.323798,11.064577,29.124523,-1.645541
312000,1.386243,-1.163582,10.172963,10.713432,29.735210,-2.317297
316000,1.237802,-1.108515,9.837775,10.102745,28.941317,-2.821113
320000,1.039083,-1.012747,9.861717,9.354653,26.895515,-2.531037
324000,0.866701,-0.964863,9.684546,8.270684,23.277195,-2.225693
328000,0.957681,-0.979228,9.648633,7.476791,20.177958,-1.874548
332000,1.051055,-0.998382,9.672575,6.423356,17.826813,-2.439434
336000,1.077391,-1.034295,9.674969,5.553127,16.147425,-2.363098
340000,0.852336,-0.938527,9.667787,4.637096,14.254294,-2.332564
344000,0.768539,-0.897826,9.832987,4.255417,12.330630,-1.782945
348000,0.921768,-0.952892,9.911995,4.056943,10.574905,-1.462335
352000,1.077391,-1.000776,10.089166,3.263050,9.429867,-1.401266
356000,1.067814,-1.130063,10.208876,2.606562,7.979486,-2.195159
360000,1.103727,-1.154005,10.563218,2.774501,5.292463,-2.637907
364000,1.103727,-1.216254,10.833763,3.064577,1.811547,-3.279129
368000,1.027112,-1.292869,11.044453,3.629463,-1.211354,-4.240961
372000,0.902614,-1.388637,11.279084,4.774501,-3.852576,-4.805846
376000,0.785298,-1.362301,11.382035,5.690531,-6.386927,-5.706609
380000,0.701501,-1.465251,11.484985,7.263050,-6.829675,-6.134090
384000,0.514753,-1.434127,11.532869,8.255417,-5.959445,-6.378365
388000,0.347159,-1.527501,11.336545,9.476790,-4.478529,-6.363098
392000,0.275333,-1.549049,11.202470,10.072210,-1.623568,-5.966151
396000,0.330400,-1.541866,11.018116,10.499692,2.147424,-5.844014
400000,0.524330,-1.515530,10.948685,10.331753,6.391699,-5.462335
404000,0.588974,-1.508347,10.704475,10.362287,9.506203,-5.248594
408000,0.782904,-1.470040,10.395624,9.705798,11.719943,-5.248594
412000,0.924162,-1.632846,10.103531,9.156180,13.032920,-5.508136
416000,1.154005,-1.630451,9.921572,7.629462,12.971851,-6.363098
420000,1.137246,-1.699883,9.832987,6.347020,11.979486,-7.385999
424000,1.079785,-1.604115,9.890448,4.911905,9.490935,-8.088289
428000,1.146823,-1.771709,9.907207,4.026409,7.200860,-9.050121
432000,1.158794,-1.699883,9.998186,3.049310,5.948951,-9.859282
436000,1.223437,-1.699883,9.967062,2.499691,4.849715,-10.790579
440000,1.118092,-1.757344,10.120291,1.812669,4.742845,-11.615006
444000,1.029507,-1.695095,10.079589,1.232516,4.712310,-12.653174
448000,0.952892,-1.685518,10.141838,0.667630,5.857348,-13.767678
452000,0.749385,-1.618480,10.184934,-0.126262,6.605440,-14.454701
456000,0.514753,-1.424550,10.283096,-0.538476,8.208493,-14.637908
460000,0.411803,-1.300052,10.129868,-1.362904,10.071088,-14.805846
464000,0.325611,-1.288081,9.923966,-2.355270,12.010019,-14.698977
468000,0.225055,-1.149217,9.770737,-3.714049,14.666508,-14.485236
472000,0.258574,-1.055843,9.876082,-5.485042,15.613073,-14.347831
476000,0.004788,-1.096544,10.081984,-6.950690,15.735210,-14.240961
480000,0.016759,-0.964863,10.603919,-7.973591,13.674142,-13.737144
484000,0.229843,-0.866701,11.032481,-8.065194,11.674142,-13.340198
488000,0.416591,-0.849942,11.506534,-7.698782,10.834447,-13.737144
492000,0.335188,-0.895431,12.042834,-6.004126,10.254294,-14.576838
496000,0.308852,-0.780510,12.770672,-2.721682,8.880248,-15.050121
500000,0.409408,-0.701501,13.139379,1.629462,8.330630,-15.462335
504000,0.636858,-0.751779,13.029245,5.492058,9.857347,-16.271496
508000,0.701501,-0.847547,12.715605,8.728700,12.284829,-17.431799
512000,0.497994,-0.804452,12.466608,10.957706,13.597806,-18.790579
516000,0.395043,-0.830788,12.222400,12.377554,12.513836,-19.080654
520000,0.196325,-0.677559,11.959038,13.064577,9.155058,-19.447067
524000,0.021548,-0.715866,11.686098,12.972974,5.109257,-19.248594
528000,-0.083797,-0.615310,11.391612,12.606562,0.697043,-18.500502
532000,0.263362,-0.574608,11.101913,11.522593,-2.539598,-18.073021
536000,0.682347,-0.586579,10.766725,10.056944,-3.150285,-18.561571
540000,0.866701,-0.521936,10.536881,8.347020,-2.112118,-19.920349
544000,0.821211,-0.529119,10.335769,6.179081,-0.753339,-21.553938
548000,0.675165,-0.421380,10.290278,4.805035,0.361165,-23.111189
552000,0.610521,-0.469264,10.292673,3.125646,3.490936,-24.256227
556000,0.148441,-0.399832,10.275913,1.598928,8.071088,-25.141724
560000,-0.481235,-0.316035,10.491392,0.209615,11.933683,-24.760044
564000,-0.727837,-0.246603,10.797850,-0.248400,14.116890,-23.553938
568000,-0.806846,-0.241814,10.912771,-0.462140,15.842081,-22.164623
572000,-0.735020,-0.378284,10.869676,-1.194965,16.849714,-21.370731
576000,-0.677559,-0.553061,10.917560,-3.042293,16.437500,-21.202791
580000,-0.744597,-0.505177,11.401189,-4.110995,14.498569,-21.950884
584000,-0.864307,-0.411803,12.042834,-4.156797,10.452767,-22.729509
588000,-1.134852,-0.921768,12.868834,-0.981224,4.635974,-22.378365
592000,-1.015141,-0.110133,12.301409,-2.095728,2.895516,-21.920349
596000,-0.557849,-0.548272,13.625401,2.942440,3.521470,-23.950884
600000,-1.048660,-0.378284,13.618219,7.904272,3.429867,-24.668442
604000,-0.967257,0.112527,12.928689,8.133280,3.979486,-24.866915
608000,-1.505953,-0.363919,13.299790,13.629462,1.994753,-24.164623
612000,-1.206678,-0.418985,12.401965,11.171448,8.116890,-26.332563
616000,-1.405396,0.560243,11.298238,14.805035,5.796279,-26.332563
620000,-2.037466,0.229843,10.869676,9.492058,6.941318,-24.683708
624000,-1.534683,0.603339,10.256760,5.934806,9.781012,-23.126455
628000,-1.393425,0.488417,10.910378,4.942440,12.162691,-22.637907
632000,-1.209072,0.656011,10.589554,3.873737,16.498569,-21.584471
636000,-0.739808,0.950498,10.151415,1.934806,21.811546,-22.027220
640000,-0.201113,0.907402,9.998186,-0.278934,28.742844,-23.401266
644000,0.000000,1.048660,9.876082,-2.095728,33.979485,-25.447067
648000,-0.294487,1.012747,10.062830,-3.973591,34.941319,-27.492868
652000,-0.268151,0.957681,10.122684,-4.981225,33.048187,-28.973785
656000,-0.052672,1.405396,10.079589,-6.187331,31.032921,-31.004318
660000,-0.636858,1.158794,10.733206,-3.530843,26.071089,-32.592106
664000,-0.962469,1.206678,10.819398,-4.675881,19.048187,-32.531036
668000,-0.359130,1.230620,11.133038,-4.569011,11.445134,-32.866913
672000,0.031125,1.072602,11.298238,-3.301835,6.712310,-34.683708
676000,-0.146046,1.158794,11.168951,-2.981224,3.032921,-37.172256
680000,-0.780510,1.108515,11.212047,-2.813286,-1.043415,-38.179890
684000,-1.101333,1.070208,11.382035,-3.744583,-4.081583,-38.561569
688000,-1.558625,1.201889,11.484985,-2.172064,-6.280056,-38.469967
692000,-1.996764,1.228225,11.480197,-1.820919,-7.730438,-37.095921
696000,-1.991976,1.393425,11.453861,-2.080461,-7.302957,-35.905083
700000,-1.857901,1.446098,11.659762,-1.256034,-4.127385,-35.691341
704000,-2.066196,1.125275,12.191275,0.453890,0.269562,-34.103554
708000,-1.999158,1.623269,11.492168,-1.332370,7.506203,-32.775311
712000,-2.135628,1.355118,11.779472,1.644730,14.147424,-32.179893
716000,-2.250550,1.723825,11.075577,1.324119,19.735210,-30.882181
720000,-2.003947,2.102109,10.759542,2.087478,23.964218,-30.118822
724000,-2.449268,1.826776,10.668563,2.881371,26.773378,-28.424166
728000,-2.319981,1.972822,9.945514,0.362287,27.765745,-27.065388
732000,-2.403779,1.920150,10.180145,-0.233133,26.834448,-26.332563
736000,-2.255338,2.121263,10.101137,-2.630080,26.971851,-25.202791
740000,-2.243367,2.094927,10.431537,-3.866720,27.613073,-24.561571
744000,-2.293645,2.154782,10.599131,-3.866720,26.300097,-22.607372
748000,-1.999158,2.166753,10.663774,-4.446874,24.315363,-20.729509
752000,-1.501164,2.152387,10.931925,-4.874354,22.651241,-20.729509
756000,-1.005565,2.248155,11.267113,-4.935423,20.010019,-21.294395
760000,-0.763750,2.284068,11.599907,-3.362904,16.483301,-22.775311
764000,-0.550666,2.319981,11.602302,-1.805652,12.956584,-24.393631
768000,-0.483629,2.329558,11.638214,-0.049927,11.032920,-25.737143
772000,-0.450110,2.291251,11.678916,2.148547,9.292462,-26.866915
776000,-0.586579,2.375048,11.575965,4.102745,7.948951,-27.782946
780000,-0.763750,2.372654,11.262324,5.003509,7.155058,-27.966150
784000,-0.928950,2.339135,10.960655,4.988241,6.819180,-28.256227
788000,-1.031901,2.394202,10.793061,4.560760,6.193226,-27.844013
792000,-1.209072,2.444480,10.795456,3.507325,5.842081,-27.202791
796000,-1.271321,2.360683,10.726024,2.942440,4.559639,-26.195158
800000,-1.218649,2.334347,10.761936,2.179081,3.307730,-25.263861
804000,-1.158794,2.252944,10.737994,1.522592,3.826814,-25.233326
808000,-1.242591,2.243367,10.656591,0.896638,5.093989,-24.851646
812000,-1.551443,2.262521,10.805033,0.438623,6.116890,-24.332563
816000,-2.059013,2.360683,10.802638,-0.324736,5.765745,-22.714243
820000,-2.094927,2.408567,11.097125,-0.630080,4.437501,-20.958517
824000,-2.059013,2.312799,11.257536,0.118012,4.437501,-19.508135
828000,-1.862689,2.339135,11.228806,0.118012,5.689409,-18.485235
832000,-2.006341,2.245761,11.262324,0.240150,7.552005,-17.767677
836000,-2.178724,2.303222,11.240777,0.728699,8.773378,-16.622639
840000,-2.408567,2.205060,11.271901,1.125646,8.803913,-15.218060
844000,-2.513912,2.161964,11.370064,1.140913,7.872615,-14.011953
848000,-2.446874,2.205060,11.470620,2.056943,5.979486,-12.790579
852000,-2.166753,2.104503,11.540052,3.476791,4.529104,-12.027221
856000,-1.917756,2.049437,11.540052,4.209615,4.300097,-11.767678
860000,-1.915361,1.934515,11.463438,5.446257,4.605440,-12.042488
864000,-2.140416,1.994370,11.473015,6.179081,4.162692,-11.660809
868000,-2.264915,1.920150,11.563994,7.614195,1.093989,-10.531037
872000,-1.980005,1.951274,11.578360,8.621829,-1.760972,-9.691342
876000,-1.537078,1.857901,11.484985,9.782134,-3.272423,-9.523404
880000,-1.403002,1.826776,11.425131,10.499692,-3.058682,-9.874549
884000,-1.465251,1.833959,11.298238,10.957706,-3.043415,-9.981419
888000,-1.501164,1.795651,11.190498,11.873737,-3.058682,-9.340198
892000,-1.572991,1.692701,11.080365,12.484425,-2.371660,-8.714244
896000,-1.695095,1.661576,10.821792,12.484425,-1.974713,-7.691342
900000,-1.750161,1.549049,10.584765,11.614196,-1.791507,-6.775311
904000,-1.826776,1.587356,10.781090,10.820302,-2.325858,-5.737144
908000,-1.857901,1.549049,10.821792,10.499692,-3.913644,-4.439434
912000,-1.853112,1.501164,10.996569,10.514958,-5.318224,-3.050121
916000,-1.659182,1.460463,10.891224,10.881371,-5.669369,-1.996686
920000,-1.345541,1.467646,10.802638,11.461524,-4.615934,-1.294396
924000,-1.290475,1.395820,10.687716,11.140913,-2.997614,-1.019587
928000,-1.510741,1.340753,10.529699,10.957706,-3.623568,-0.149358
932000,-1.529895,1.343147,10.601525,10.682898,-5.012881,0.354459
936000,-1.486799,1.304840,10.414778,10.377554,-5.913644,1.530032
940000,-1.424550,1.295263,10.196905,9.736333,-5.928911,2.171253
944000,-1.371878,1.237802,9.962274,8.576028,-4.967079,3.102551
948000,-1.347936,1.127669,9.883265,6.820302,-3.898377,3.942245
952000,-1.362301,1.110910,9.588778,4.224883,-4.447995,4.614001
956000,-1.685518,0.916979,9.897630,3.263050,-6.661736,6.262856
960000,-1.678335,0.969652,9.909601,0.774501,-9.425095,7.392627
964000,-1.393425,0.943315,10.201694,1.766867,-11.638836,8.934611
968000,-1.149217,0.804452,10.196905,-2.309469,-8.799141,9.133085
972000,-1.101333,0.646434,10.694899,0.743966,-8.096850,9.652169
976000,-1.072602,0.914585,10.714052,0.423356,-8.951813,9.591100
980000,-1.003170,0.799663,11.094730,2.087478,-10.173186,9.926978
984000,-0.797269,0.768539,11.092337,3.782134,-11.547233,9.392627
988000,-0.440533,0.689530,11.032481,4.881371,-11.974713,8.354459
992000,-0.466869,0.660800,11.001357,6.118012,-9.959446,7.423162
996000,-0.533907,0.593762,10.800244,6.866104,-8.127385,6.736139
1000000,-0.677559,0.553061,10.658986,7.690531,-6.661736,6.491864
1004000,-0.615310,0.569820,10.421960,7.934806,-5.669369,6.323925
1008000,-0.737414,0.550666,10.156203,6.927173,-5.135018,6.232322
1012000,-0.833182,0.450110,10.026917,5.598928,-5.669369,6.400261
1016000,-0.708684,0.375890,9.950302,4.102745,-6.890743,6.537665
1020000,-0.806846,0.342371,9.962274,2.118012,-8.661736,6.919345
1024000,-0.792481,0.265756,10.211270,0.743966,-10.325858,7.423162
1028000,-0.754174,0.265756,10.553641,-0.507942,-11.852576,7.774307
1032000,-0.624887,0.239420,10.735600,-0.675881,-12.035782,8.094917
1036000,-0.330400,0.203507,10.742783,-0.294202,-10.539598,8.400260
1040000,-0.143652,0.119710,10.675745,0.270684,-7.699903,8.064383
1044000,-0.011971,0.031125,10.560823,0.087478,-4.799140,7.362093
1048000,-0.069432,-0.009577,10.460267,-0.355270,-2.829675,6.873543
1052000,-0.438139,0.055067,10.441113,-0.950690,-2.921278,6.705605
1056000,-0.414197,0.117316,10.340557,-2.126262,-3.089217,6.659803
1060000,-0.380678,0.011971,10.378864,-2.507942,-3.287690,6.659803
1064000,-0.239420,0.105345,10.450690,-3.240766,-2.936545,6.522398
1068000,-0.217872,0.136469,10.328587,-3.423972,-1.776240,6.461329
1072000,-0.203507,0.076614,10.359711,-3.805652,-0.936545,6.033849
1076000,-0.198719,0.064643,10.448297,-4.156797,-0.493797,5.423162
1080000,-0.220267,0.098162,10.541670,-4.034659,-1.058682,4.843009
1084000,-0.407014,0.160412,10.644621,-3.485041,-1.730438,4.827742
1088000,-0.414197,0.138864,10.726024,-2.859087,-2.264789,4.430795
1092000,-0.395043,0.050278,10.900801,-1.897255,-1.760972,4.217055
1096000,-0.313640,0.007183,10.876859,-1.133896,-1.028148,3.331558
1100000,-0.450110,0.007183,10.893618,-0.950690,-0.447995,2.843009
1104000,-0.648829,-0.011971,10.831368,-0.706415,-0.951812,2.751406
1108000,-0.746991,-0.028730,10.991780,-0.813286,-2.692270,2.598734
1112000,-0.792481,-0.023942,11.104307,-0.385804,-4.906011,2.949879
1116000,-0.632069,-0.031125,11.113884,0.011142,-6.447995,3.163620
1120000,-0.505177,-0.138864,11.051635,0.209615,-7.547232,3.362093
1124000,-0.466869,-0.028730,11.149797,0.530226,-8.447996,3.133085
1128000,-0.409408,-0.064643,10.917560,0.285951,-9.394561,2.980413
1132000,-0.282516,-0.134075,10.637438,-0.538476,-10.035782,2.293390
1136000,-0.409408,-0.136469,10.556035,-2.217866,-10.707538,2.094917
1140000,-0.529119,-0.088585,10.529699,-4.202599,-11.745706,1.804841
1144000,-0.569820,-0.076614,10.603919,-5.866721,-13.379293,2.079650
1148000,-0.701501,0.107739,10.850522,-7.408706,-14.554866,2.323925
1152000,-0.656011,0.031125,11.159374,-7.912522,-15.165553,2.965146
1156000,-0.402226,0.119710,11.370064,-7.988858,-15.226622,2.995681
1160000,-0.296881,0.210690,11.669339,-7.423973,-14.203721,2.919345
1164000,-0.234632,0.160412,11.848905,-6.156797,-13.104485,2.186520
1168000,-0.225055,0.275333,11.915942,-4.782751,-11.302958,1.438429
1172000,-0.227449,0.260968,12.030864,-3.027026,-9.745706,0.812474
1176000,-0.277727,0.287304,12.018892,-0.981224,-7.974713,0.217055
1180000,-0.268151,0.268151,11.987768,0.789768,-5.883110,-0.393632
1184000,-0.196325,0.227449,11.911154,2.224883,-3.562499,-1.187526
1188000,-0.241814,0.177171,11.810597,2.988241,-0.738072,-2.286762
1192000,-0.488417,0.220267,11.580753,3.934806,1.216127,-2.637907
1196000,-0.632069,0.186748,11.470620,4.453890,2.529104,-2.485235
1200000,-0.806846,0.201113,11.255142,4.484425,3.017654,-2.179892
1204000,-0.857124,0.186748,11.168951,4.698165,3.246661,-1.630274
1208000,-0.816423,0.126893,11.054029,4.453890,2.849715,-1.431800
1212000,-0.826000,0.102951,11.087548,4.102745,2.010020,-1.538671
1216000,-0.806846,0.138864,11.092337,4.240149,0.361165,-1.584472
1220000,-0.770933,0.105345,11.228806,4.194348,-1.119751,-1.859281
1224000,-0.792481,0.079009,11.312603,4.805035,-2.325858,-1.905083
1228000,-0.806846,0.047884,11.200075,5.140913,-2.799140,-1.844014
1232000,-0.864307,-0.023942,11.056423,4.789768,-3.241888,-1.706609
1236000,-1.022324,0.045490,11.013328,4.377554,-4.356392,-1.706609
1240000,-1.084573,0.069432,10.900801,3.766867,-6.447995,-1.263861
1244000,-1.120486,0.067038,10.903194,2.774501,-8.646469,-0.546304
1248000,-1.170765,0.033519,10.840945,1.721066,-11.089217,0.339192
1252000,-1.120486,0.059855,10.805033,0.591295,-13.012881,0.888810
1256000,-1.079785,0.141258,10.881647,-0.416339,-13.425095,1.560566
1260000,-0.993594,0.138864,11.037270,-0.813286,-14.020514,2.125452
1264000,-0.979228,0.220267,11.142614,-0.782751,-13.715171,2.659803
1268000,-0.766145,0.205901,11.094730,-0.492675,-12.615934,3.239955
1272000,-0.636858,0.191536,11.101913,-0.660614,-10.661736,3.163620
1276000,-0.751779,0.172383,11.178528,0.118012,-9.089217,3.423162
1280000,-0.799663,0.277727,11.346122,0.957707,-9.302958,3.850643
1284000,-0.392649,0.241814,11.540052,1.965340,-8.768606,4.049116
1288000,-0.055067,0.208296,11.473015,3.583661,-6.081583,3.133085
1292000,0.098162,0.179565,11.286267,4.606562,-2.310591,1.682703
1296000,-0.062249,0.191536,11.142614,5.217249,1.353531,0.690337
1300000,-0.354342,0.215478,10.958261,5.644730,2.635974,0.262856
1304000,-0.610521,0.289698,10.910378,6.270684,2.697043,0.522398
1308000,-0.603339,0.260968,10.759542,6.347020,1.216127,1.072016
1312000,-0.347159,0.265756,10.649409,5.797401,-0.310591,1.301024
1316000,-0.023942,0.296881,10.675745,5.201982,-1.028148,1.026215
1320000,0.158017,0.222661,10.682928,4.453890,-1.196087,0.110184
1324000,0.033519,0.229843,10.635044,4.179081,-1.562499,-0.637907
1328000,-0.095768,0.330400,10.776301,3.797401,-2.600667,-1.187526
1332000,-0.047884,0.220267,10.874464,3.766867,-3.577766,-1.538671
1336000,-0.172383,0.090980,10.888829,4.194348,-3.348759,-1.996686
1340000,-0.351948,0.155623,10.943896,3.965340,-3.867843,-2.286762
1344000,-0.454898,0.248997,10.943896,4.072211,-5.089217,-2.195159
1348000,-0.493206,0.143652,11.025299,3.583661,-6.646469,-1.752411
1352000,-0.442927,0.179565,10.884041,3.171447,-8.081583,-1.355464
1356000,-0.497994,0.208296,10.824186,2.331753,-9.119752,-1.034854
1360000,-0.428562,0.237026,10.931925,1.537859,-9.852576,-0.775312
1364000,-0.486023,0.244209,10.982203,1.324119,-10.356393,-0.836380
1368000,-0.411803,0.306458,11.133038,1.461524,-10.417461,-0.622640
1372000,-0.354342,0.349553,11.267113,1.934806,-10.341125,-0.576838
1376000,-0.222661,0.265756,11.283873,2.484425,-8.921278,-0.683709
1380000,-0.074220,0.292093,11.183316,3.140913,-6.463263,-1.355464
1384000,-0.177171,0.316035,11.073183,3.247783,-4.356392,-1.920350
1388000,-0.203507,0.248997,10.896012,3.385188,-3.501430,-2.149358
1392000,-0.213084,0.311246,10.948685,3.293585,-2.432728,-2.622640
1396000,-0.299275,0.347159,10.924743,3.003508,-1.806774,-2.943251
1400000,-0.488417,0.301669,11.075577,2.774501,-1.730438,-3.034854
1404000,-0.577003,0.272939,11.156980,3.278317,-2.402194,-2.408900
1408000,-0.471658,0.304064,11.159374,3.553127,-2.783873,-2.057755
1412000,-0.284910,0.375890,11.171345,4.148547,-2.661736,-2.103556
1416000,-0.256180,0.280122,11.358093,4.591295,-3.516698,-2.576838
1420000,-0.399832,0.320823,11.552023,5.812669,-5.302957,-2.683709
1424000,-0.153229,0.409408,11.772290,7.797401,-8.509065,-2.546304
1428000,0.105345,0.277727,11.554418,9.095112,-9.577766,-3.553938
1432000,0.205901,0.232238,11.204864,9.965341,-9.837309,-4.683709
1436000,-0.050278,0.220267,11.032481,9.889005,-11.531965,-5.492869
1440000,-0.308852,0.270545,11.049241,9.827936,-14.906011,-5.523403
1444000,-0.500388,0.225055,10.931925,9.492058,-18.860210,-5.630273
1448000,-0.335188,0.225055,10.941502,9.446257,-21.593035,-5.767678
1452000,-0.390255,0.251391,11.003751,9.736333,-22.539598,-5.416533
1456000,-0.387861,0.155623,10.874464,9.369921,-21.241888,-5.263861
1460000,-0.454898,0.107739,10.723629,9.064577,-18.341125,-4.851647
1464000,-0.620098,0.179565,10.601525,7.919539,-15.745706,-4.393632
1468000,-0.849942,0.265756,10.484209,6.927173,-13.898377,-3.752411
1472000,-0.955287,0.316035,10.721235,6.285951,-12.799141,-2.592106
1476000,-1.055843,0.411803,10.826580,6.118012,-11.150286,-0.989052
1480000,-0.639252,0.409408,10.635044,6.255417,-7.883110,0.247589
1484000,-0.409408,0.272939,10.419566,5.705799,-2.096850,0.552933
1488000,-0.246603,0.306458,10.244789,4.377554,2.834447,0.262856
1492000,-0.325611,0.435745,10.189722,3.446256,5.750478,0.384994
1496000,-0.495600,0.390255,10.201694,2.453890,5.689409,0.400261
1500000,-0.550666,0.469264,10.108319,1.263050,3.979486,0.934612
1504000,-0.423774,0.454898,10.168175,0.698165,2.406966,1.865910
1508000,-0.308852,0.378284,10.280702,0.209615,0.574905,2.201787
1512000,-0.033519,0.488417,10.457873,0.056943,-1.837308,2.171253
1516000,0.593762,0.459687,10.536881,0.133279,-4.051049,1.530032
1520000,0.957681,0.375890,10.623073,-0.156797,-4.386927,-0.683709
1524000,0.883460,0.356736,10.670957,-0.049927,-4.768606,-2.897449
1528000,0.478840,0.411803,10.809821,-0.019392,-5.593033,-4.164625
1532000,0.304064,0.385466,10.852917,0.789768,-6.218987,-4.760045
1536000,0.074220,0.378284,10.644621,1.461524,-6.127385,-4.927983
1540000,0.019154,0.265756,10.484209,1.324119,-5.791507,-5.065388
1544000,-0.064643,0.332794,10.503363,0.530226,-5.531965,-4.958518
1548000,-0.023942,0.366313,10.730812,0.026409,-6.218987,-5.111189
1552000,-0.074220,0.342371,10.888829,-0.645346,-7.119751,-4.973785
1556000,-0.088585,0.287304,11.051635,-0.462140,-7.547232,-5.050121
1560000,-0.093374,0.359130,11.056423,-0.156797,-7.302957,-4.912716
1564000,0.028730,0.404620,11.111490,0.621829,-6.203721,-4.897449
1568000,-0.009577,0.390255,11.140221,1.537859,-4.173186,-5.309663
1572000,-0.129287,0.304064,11.173739,2.469157,-2.677003,-5.645541
1576000,-0.208296,0.304064,11.094730,2.988241,-1.730438,-5.691342
1580000,-0.253785,0.263362,10.951078,3.324119,-1.364026,-5.859281
1584000,-0.203507,0.280122,10.872070,2.972974,-0.356392,-6.057755
1588000,-0.232238,0.260968,10.943896,2.560760,0.803913,-6.317297
1592000,-0.536301,0.248997,10.927136,2.194348,1.613073,-6.332563
1596000,-0.713472,0.282516,10.903194,1.507325,1.536737,-5.706609
1600000,-0.835576,0.289698,10.927136,1.247783,1.231394,-4.927983
1604000,-0.900220,0.270545,11.046846,1.171447,1.093989,-4.134090
1608000,-0.746991,0.237026,10.927136,1.003508,1.643608,-3.615006
1612000,-0.744597,0.198719,11.008539,0.866104,2.391699,-3.233327
1616000,-0.742203,0.215478,10.979809,0.652363,2.819180,-3.019587
1620000,-0.725443,0.277727,10.857705,0.285951,2.468035,-2.332564
1624000,-0.763750,0.272939,10.785878,-0.431606,2.300096,-1.905083
1628000,-0.826000,0.256180,10.802638,-0.965957,1.658875,-1.370732
1632000,-0.921768,0.239420,10.726024,-1.454507,0.880249,-0.821113
1636000,-0.960075,0.277727,10.735600,-1.943056,-0.127385,-0.042487
1640000,-0.893037,0.301669,10.781090,-2.294202,-1.028148,0.644536
1644000,-0.797269,0.174777,11.104307,-2.294202,-1.883110,1.301024
1648000,-0.763750,0.229843,11.329363,-2.004125,-3.547232,1.835375
1652000,-0.418985,0.299275,11.561600,-0.935423,-5.547232,2.094917
1656000,-0.023942,0.244209,11.726800,0.576027,-5.654102,1.468963
1660000,0.160412,0.189142,11.422736,1.889004,-4.295324,0.125452
1664000,0.057461,0.198719,11.267113,2.316485,-2.066316,-1.019587
1668000,-0.220267,0.227449,11.094730,2.866104,-1.058682,-1.981419
1672000,-0.514753,0.282516,11.010934,3.003508,-1.333492,-1.966151
1676000,-0.667982,0.213084,10.852917,3.201982,-2.203721,-1.523403
1680000,-0.804452,0.141258,10.891224,2.453890,-3.364026,-0.821113
1684000,-0.735020,0.260968,11.027693,1.782134,-5.150285,0.079650
1688000,-0.560243,0.275333,11.271901,1.736333,-6.615934,0.476597
1692000,-0.311246,0.222661,11.441890,2.301218,-7.073949,0.491864
1696000,-0.088585,0.280122,11.432313,2.652363,-6.051049,-0.118823
1700000,-0.069432,0.153229,11.300632,3.614195,-4.203721,-1.004319
1704000,-0.062249,0.277727,11.030087,4.163814,-2.524331,-2.011953
1708000,-0.445322,0.256180,11.061212,4.499691,-0.875476,-2.851648
1712000,-0.665588,0.241814,11.121067,4.850837,-1.104484,-2.622640
1716000,-0.818817,0.301669,11.030087,5.171447,-2.112118,-1.889816
1720000,-0.885855,0.270545,11.046846,4.743967,-3.302957,-0.760045
1724000,-0.749385,0.229843,10.912771,4.163814,-3.654102,-0.103556
1728000,-0.660800,0.229843,10.907983,3.476791,-3.806774,0.369726
1732000,-0.612916,0.205901,11.085154,2.713432,-4.157919,0.659803
1736000,-0.526724,0.220267,10.975020,2.179081,-4.386927,0.904078
1740000,-0.447716,0.181959,10.958261,1.995875,-3.913644,0.888810
1744000,-0.486023,0.146046,10.943896,1.843203,-3.638835,0.659803
1748000,-0.490811,0.162806,10.900801,1.889004,-3.501430,0.888810
1752000,-0.596156,0.160412,10.907983,1.522592,-3.608301,0.904078
1756000,-0.562637,0.107739,10.912771,1.659997,-4.310591,1.468963
1760000,-0.447716,0.112527,10.879252,0.927172,-4.417461,1.530032
1764000,-0.447716,0.158017,10.867282,0.316485,-4.921278,1.759039
1768000,-0.402226,0.181959,10.917560,0.026409,-5.302957,1.972780
1772000,-0.387861,0.158017,10.986992,0.072211,-5.547232,2.247589
1776000,-0.359130,0.229843,11.094730,0.576027,-6.005247,2.140719
1780000,-0.296881,0.201113,11.104307,1.156180,-6.478529,2.308658
1784000,-0.184354,0.239420,11.075577,1.950073,-6.295323,2.171253
1788000,-0.174777,0.186748,10.953473,2.301218,-6.386927,1.850642
1792000,-0.071826,0.227449,10.857705,2.530226,-6.371659,1.697971
1796000,-0.055067,0.213084,10.869676,2.392821,-6.722805,1.117818
1800000,-0.035913,0.193930,10.891224,2.102745,-6.890743,0.995681
1804000,-0.201113,0.158017,10.936713,2.209615,-7.928911,1.270490
1808000,0.047884,0.148441,10.836157,1.858470,-8.661736,1.255223
1812000,0.371101,0.107739,10.776301,1.369921,-8.280057,0.705604
1816000,0.529119,0.088585,10.788273,0.911905,-7.684637,-0.469968
1820000,0.404620,0.136469,10.706870,0.392821,-7.394560,-1.508136
1824000,0.213084,0.193930,10.752359,-0.187331,-8.310591,-1.752411
1828000,0.162806,0.277727,10.711658,-0.324736,-8.890744,-1.813480
1832000,0.146046,0.287304,10.845734,-0.141530,-9.470897,-1.828747
1836000,0.169988,0.179565,10.991780,-0.019392,-9.043416,-1.706609
1840000,0.280122,0.284910,11.082760,0.392821,-8.967080,-1.828747
1844000,0.383072,0.251391,11.183316,0.835569,-8.493797,-2.027220
1848000,0.426168,0.232238,11.037270,1.827936,-8.020514,-2.531037
1852000,0.447716,0.179565,10.872070,1.415722,-6.936545,-2.989052
1856000,0.320823,0.129287,10.860099,1.140913,-6.310591,-3.615006
1860000,0.237026,0.203507,10.898406,1.201982,-5.760972,-4.118823
1864000,0.074220,0.201113,10.953473,1.232516,-5.654102,-4.271495
1868000,0.059855,0.239420,11.097125,1.461524,-5.028148,-4.271495
1872000,0.167594,0.205901,11.135432,1.919539,-4.005247,-4.469968
1876000,0.294487,0.215478,11.154586,2.270684,-2.906011,-4.744777
1880000,0.179565,0.193930,11.133038,2.408089,-1.516698,-5.309663
1884000,0.050278,0.172383,11.027693,2.667631,-0.524331,-5.813479
1888000,-0.105345,0.222661,11.118672,2.896638,-0.554866,-5.935617
1892000,-0.227449,0.193930,11.030087,3.247783,-0.906011,-5.844014
1896000,-0.167594,0.191536,10.881647,3.232516,-0.753339,-5.416533
1900000,-0.201113,0.141258,10.860099,2.881371,-0.677003,-5.492869
1904000,-0.196325,0.215478,10.867282,2.606562,-1.073950,-5.263861
1908000,-0.270545,0.177171,10.927136,2.087478,-1.669369,-5.279129
1912000,-0.260968,0.169988,10.941502,1.873737,-2.249522,-5.218060
1916000,-0.320823,0.198719,11.003751,1.553127,-2.661736,-5.279129
1920000,-0.368707,0.217872,11.149797,2.026409,-2.585400,-4.729510
1924000,-0.371101,0.268151,11.224017,2.270684,-2.142652,-4.561571
1928000,-0.387861,0.241814,11.152191,2.560760,-1.913644,-4.576838
1932000,-0.502782,0.213084,11.154586,3.079844,-1.944179,-4.195159
1936000,-0.507571,0.282516,11.291056,3.247783,-2.539598,-4.057755
1940000,-0.328006,0.277727,11.286267,3.721066,-2.997614,-3.966152
1944000,-0.248997,0.222661,11.293449,4.362287,-2.478530,-4.118823
1948000,-0.275333,0.186748,11.145009,4.759233,-1.806774,-4.378365
1952000,-0.418985,0.167594,10.946290,4.911905,-0.967079,-4.592105
1956000,-0.555455,0.272939,10.843340,4.881371,-1.028148,-4.363098
1960000,-0.658405,0.196325,10.790668,4.774501,-1.348759,-3.721877
1964000,-0.672771,0.177171,10.656591,4.362287,-2.173186,-3.279129
1968000,-0.411803,0.215478,10.635044,3.507325,-2.768606,-2.882182
1972000,-0.299275,0.260968,10.579977,2.972974,-3.165553,-2.973785
1976000,-0.306458,0.186748,10.694899,2.041676,-3.073950,-3.172258
1980000,-0.538695,0.287304,10.759542,1.278317,-3.302957,-3.095922
1984000,-0.617704,0.258574,10.824186,1.003508,-3.852576,-2.592106
1988000,-0.593762,0.313640,10.922348,1.308852,-4.447995,-2.057755
1992000,-0.593762,0.237026,10.907983,1.247783,-3.699904,-1.538671
1996000,-0.529119,0.189142,11.018116,1.247783,-3.287690,-1.156991
