time_us,ax,ay,az,gx,gy,gz
0,0.265756,0.584185,11.398794,0.942440,1.399333,0.690337
4000,0.452504,0.584185,11.444284,1.293585,0.315363,0.781940
8000,0.562637,0.605733,11.389217,1.156180,-0.753339,0.812474
12000,0.634463,0.658405,11.504139,1.659997,-2.035782,0.476597
16000,0.639252,0.648829,11.559206,2.469157,-3.028148,0.064383
20000,0.598550,0.715866,11.506534,2.896638,-3.089217,0.049116
24000,0.529119,0.636858,11.511322,3.553127,-3.241888,0.400261
28000,0.553061,0.689530,11.446678,4.072211,-2.967079,0.308658
32000,0.615310,0.677559,11.250354,4.713432,-2.799140,0.354459
36000,0.627281,0.663194,11.247959,4.621829,-2.738072,0.293391
40000,0.715866,0.600945,11.087548,4.820302,-2.707537,0.155986
44000,0.742203,0.620098,10.998962,4.224883,-3.119751,0.247589
48000,0.684742,0.636858,11.094730,4.331753,-3.883110,0.003314
52000,0.723049,0.679953,11.058818,4.453890,-4.066316,-0.088289
56000,0.677559,0.754174,11.161768,4.163814,-3.989980,-0.485235
60000,0.586579,0.677559,11.224017,4.148547,-4.051049,-0.363098
64000,0.476446,0.739808,11.274296,4.881371,-3.501430,-0.011953
68000,0.538695,0.651223,11.214440,5.034043,-2.722805,0.155986
72000,0.495600,0.837971,11.121067,5.263051,-1.913644,0.629268
76000,0.656011,0.651223,11.113884,5.736333,-1.272423,0.079650
80000,0.703895,0.787692,10.817003,5.537859,0.452768,0.171253
84000,0.533907,0.706290,10.668563,4.774501,1.322997,0.079650
88000,0.359130,0.718261,10.675745,4.072211,0.529104,0.720871
92000,0.380678,0.739808,10.752359,3.675264,-1.272423,1.224688
96000,0.509965,0.790087,10.723629,3.430989,-2.570133,1.774307
100000,0.701501,0.799663,10.833763,3.110379,-3.409827,1.820108
104000,0.871489,0.737414,10.852917,3.125646,-4.142652,1.438429
108000,0.988805,0.718261,11.006145,3.522592,-4.356392,1.133085
112000,0.981623,0.782904,11.013328,4.224883,-3.867843,0.507131
116000,1.007959,0.806846,11.037270,4.759233,-3.119751,0.186520
120000,0.972046,0.818817,10.963050,5.034043,-2.631201,-0.179892
124000,1.048660,0.840365,10.963050,5.079844,-2.249522,-0.317297
128000,1.242591,0.811634,10.876859,5.003509,-1.852576,-0.729510
132000,1.204283,0.818817,10.771513,4.438623,-1.730438,-1.447067
136000,1.182736,0.732626,10.771513,4.026409,-1.119751,-1.828747
140000,0.945710,0.792481,10.649409,3.293585,-1.104484,-2.363098
144000,0.919373,0.814029,10.737994,2.652363,-1.043415,-2.332564
148000,0.818817,0.811634,10.749966,2.148547,-1.486163,-2.088289
152000,0.830788,0.758962,10.836157,1.690531,-1.898377,-2.027220
156000,0.809240,0.691924,10.886436,1.324119,-2.844942,-2.118823
160000,0.835576,0.826000,11.001357,1.217249,-3.257156,-2.363098
164000,0.742203,0.778116,11.104307,1.568394,-3.241888,-2.378365
168000,0.665588,0.818817,11.066000,2.163814,-2.967079,-2.332564
172000,0.639252,0.826000,11.142614,2.805035,-1.669369,-1.996686
176000,0.636858,0.806846,10.946290,3.186715,-0.066316,-1.996686
180000,0.572214,0.790087,10.790668,3.186715,0.712310,-1.798213
184000,0.586579,0.732626,10.723629,2.805035,0.452768,-1.767678
188000,0.557849,0.780510,10.623073,2.545493,0.010020,-1.752411
192000,0.529119,0.883460,10.548853,1.766867,-1.089217,-1.523403
196000,0.483629,0.794875,10.726024,1.461524,-1.409827,-1.416533
200000,0.462081,0.737414,10.735600,1.369921,-1.699904,-0.989052
204000,0.421380,0.735020,10.711658,0.881371,-1.516698,-0.744777
208000,0.347159,0.713472,10.800244,0.545493,-1.211354,-0.317297
212000,0.433351,0.766145,10.898406,0.682898,-1.058682,0.049116
216000,0.407014,0.696713,11.003751,0.743966,-0.646469,0.293391
220000,0.454898,0.751779,11.224017,0.972974,-0.173186,0.461329
224000,0.586579,0.646434,11.128249,1.751600,0.498570,0.614001
228000,0.581791,0.579397,11.056423,1.858470,1.414600,0.537665
232000,0.464475,0.596156,10.996569,1.995875,2.086356,0.720871
236000,0.395043,0.553061,11.008539,1.827936,1.063455,0.995681
240000,0.526724,0.560243,10.943896,1.980608,-0.478530,1.407894
244000,0.830788,0.526724,10.860099,1.644730,-1.409827,1.178887
248000,0.995988,0.531513,10.948685,1.293585,-2.112118,0.491864
252000,1.053449,0.553061,11.137826,1.644730,-3.425095,0.003314
256000,1.113304,0.565032,11.235989,2.301218,-4.096850,-0.851648
260000,1.074997,0.598550,11.121067,3.018775,-4.066316,-1.416533
264000,0.948104,0.557849,10.919954,3.156180,-3.715171,-1.798213
268000,0.926556,0.502782,10.848128,3.369921,-3.593034,-1.981419
272000,0.873884,0.495600,10.754754,2.927173,-2.844942,-2.256228
276000,0.835576,0.438139,10.687716,2.102745,-2.799140,-2.240961
280000,0.744597,0.478840,10.721235,1.369921,-2.463263,-2.378365
284000,0.739808,0.366313,10.776301,0.774501,-1.638835,-2.240961
288000,0.713472,0.383072,10.939108,0.469157,-0.585400,-2.149358
292000,0.651223,0.330400,10.879252,0.118012,0.468035,-2.027220
296000,0.471658,0.172383,10.831368,-0.110996,1.674142,-1.584472
300000,0.418985,0.083797,10.817003,-0.492675,2.147424,-1.156991
304000,0.459687,0.028730,10.761936,-1.210232,2.635974,-1.111190
308000,0.478840,-0.052672,10.922348,-1.271301,2.681776,-0.836380
312000,0.423774,-0.086191,10.960655,-1.637713,2.437501,-0.989052
316000,0.450110,-0.055067,11.209652,-1.469774,2.529104,-0.973785
320000,0.608127,-0.162806,10.996569,-1.362904,2.987119,-0.561571
324000,0.629675,-0.368707,11.176133,-1.836186,4.162692,-1.477602
328000,0.354342,-0.306458,11.336545,-1.485041,3.719944,-1.340197
332000,0.069432,-0.251391,11.616667,-0.630080,1.170325,-0.363098
336000,0.239420,-0.440533,11.836933,0.362287,-1.654102,0.491864
340000,0.536301,-0.548272,11.853693,1.843203,-3.211354,0.384994
344000,0.768539,-0.577003,11.856087,2.469157,-3.898377,0.094917
348000,0.909797,-0.667982,11.858481,3.415722,-5.348759,-0.805846
352000,0.940921,-0.603339,11.851298,4.270684,-7.257155,-1.553938
356000,1.022324,-0.691924,11.647791,4.637096,-8.325858,-2.347831
360000,0.945710,-0.689530,11.374852,4.576027,-8.951813,-3.141724
364000,0.761356,-0.711078,11.111490,4.011142,-9.684637,-3.767678
368000,0.430956,-0.725443,11.063606,3.064577,-10.432729,-3.645541
372000,0.177171,-0.718261,11.082760,2.240149,-11.318225,-2.897449
376000,0.148441,-0.610521,11.173739,1.705798,-12.051049,-2.057755
380000,0.306458,-0.610521,11.145009,1.140913,-11.577766,-1.447067
384000,0.531513,-0.672771,11.061212,1.034043,-9.348759,-1.156991
388000,0.521936,-0.715866,10.821792,-0.004125,-6.600667,-1.004319
392000,0.541090,-0.723049,10.797850,-0.920156,-4.325858,-1.279129
396000,0.608127,-0.763750,10.807426,-1.454507,-3.654102,-1.187526
400000,0.691924,-0.675165,10.831368,-2.004125,-3.654102,-1.630274
404000,0.708684,-0.689530,10.953473,-2.385804,-3.806774,-1.828747
408000,0.536301,-0.727837,11.250354,-1.836186,-4.188453,-1.462335
412000,0.581791,-0.596156,11.358093,-1.683514,-4.738071,-0.851648
416000,0.694318,-0.553061,11.413159,-0.889621,-4.646469,0.064383
420000,0.986411,-0.581791,11.329363,-0.294202,-4.081583,0.400261
424000,1.237802,-0.577003,11.382035,-0.034660,-3.150285,0.125452
428000,1.462857,-0.608127,11.269507,0.179081,-1.944179,-0.469968
432000,1.640028,-0.739808,11.271901,0.148546,-1.318224,-1.416533
436000,1.683124,-0.766145,11.133038,0.087478,-0.249522,-2.393632
440000,1.460463,-0.936133,11.125855,-0.263667,0.177959,-3.004319
444000,1.194707,-0.979228,11.228806,-0.324736,0.177959,-3.019587
448000,0.940921,-1.051055,11.451467,-0.080461,-0.768606,-2.851648
452000,0.979228,-1.089362,11.712435,0.453890,-1.302957,-2.424167
456000,1.063026,-1.323994,11.769896,1.293585,-1.470896,-2.408900
460000,1.089362,-1.374272,11.666945,2.041676,-1.501431,-2.683709
464000,0.842759,-1.426944,11.669339,2.179081,-3.638835,-2.790579
468000,0.670376,-1.414973,11.662156,2.728699,-7.974713,-3.111190
472000,0.363919,-1.493982,11.722012,3.018775,-13.470897,-3.080655
476000,0.287304,-1.532289,11.733982,3.797401,-17.364027,-2.912716
480000,0.339977,-1.630451,11.554418,4.133279,-19.226622,-3.370732
484000,0.632069,-1.687912,11.815386,4.637096,-17.501431,-3.844014
488000,1.403002,-1.589750,12.445061,8.698165,-10.173186,-5.523403
492000,1.647211,-1.247379,12.399570,18.514959,7.750478,-10.118824
496000,0.134075,-1.364695,11.006145,12.530226,10.742844,-8.897449
500000,-0.562637,-1.556231,11.111490,14.056943,10.574905,-7.187525
504000,-0.464475,-1.216254,10.850522,12.133279,3.552005,-5.019587
508000,0.138864,-1.393425,11.097125,11.492058,0.926050,-5.218060
512000,0.476446,-1.431733,10.465055,11.278317,-0.615934,-4.653174
516000,0.797269,-1.434127,10.378864,9.553126,1.765745,-4.011953
520000,1.182736,-1.307234,10.982203,9.263050,6.468035,-3.401266
524000,1.285686,-1.228225,11.310209,10.087478,10.193226,-3.370732
528000,1.331176,-1.424550,11.027693,10.743966,11.002386,-3.706610
532000,1.352724,-1.434127,10.931925,9.751600,9.658875,-4.500503
536000,1.666364,-1.491588,11.154586,9.889005,7.185593,-5.523403
540000,1.879448,-1.498770,11.147403,10.637096,5.628341,-7.233327
544000,1.884237,-1.599327,11.224017,11.217249,6.254295,-8.851648
548000,1.709460,-1.680730,11.343728,11.934806,6.910783,-10.424167
552000,1.082179,-1.630451,10.608707,12.453890,4.284829,-11.050121
556000,1.137246,-1.766921,10.900801,10.560760,1.887883,-11.462335
560000,0.593762,-1.606509,10.891224,10.255417,0.529104,-12.347831
564000,-0.028730,-1.522712,10.749966,8.911905,-3.867843,-11.935617
568000,-0.416591,-1.419762,10.539276,8.362287,-9.028149,-10.164625
572000,-0.603339,-1.391031,10.302250,7.217249,-11.577766,-8.179892
576000,-0.586579,-1.290475,10.405201,6.301218,-10.799141,-6.744777
580000,-0.562637,-1.335965,10.263943,5.812669,-11.501431,-5.569205
584000,-0.689530,-1.338359,10.299856,4.850837,-12.860209,-4.347831
588000,-0.624887,-1.381454,10.273520,3.659997,-14.264790,-3.676075
592000,-0.766145,-1.300052,10.481815,2.560760,-15.089217,-2.744777
596000,-0.909797,-1.288081,10.572795,2.194348,-16.386927,-0.973785
600000,-0.821211,-1.302446,10.742783,1.995875,-17.043415,0.522398
604000,-0.584185,-1.264138,10.802638,1.583661,-15.852576,2.354459
608000,-0.196325,-1.261744,10.711658,1.324119,-13.150286,3.010948
612000,0.311246,-1.206678,10.771513,0.438623,-10.203721,2.781940
616000,0.639252,-1.027112,10.845734,-0.278934,-8.020514,1.530032
620000,0.837971,-0.785298,11.379641,0.224882,-6.173186,0.064383
624000,0.818817,-0.624887,11.283873,1.140913,-4.661736,-0.729510
628000,0.967257,-0.691924,11.255142,1.751600,-3.089217,-1.477602
632000,1.163582,-0.684742,11.003751,2.072211,-0.997614,-2.561571
636000,1.168370,-0.598550,10.941502,2.362287,0.101623,-3.721877
640000,0.924162,-0.555455,11.111490,2.026409,-1.822041,-4.882182
644000,0.766145,-0.428562,11.286267,2.377554,-6.371659,-5.172258
648000,0.754174,-0.308852,11.532869,3.156180,-10.051049,-5.126457
652000,1.043872,-0.368707,11.492168,4.606562,-12.417461,-5.599739
656000,1.084573,-0.359130,11.178528,4.484425,-15.501431,-5.935617
660000,0.986411,-0.306458,11.046846,4.102745,-19.455629,-6.469968
664000,0.861913,-0.208296,10.989386,3.354653,-23.486164,-7.050121
668000,0.658405,-0.201113,10.905589,2.606562,-27.715172,-8.073022
672000,0.435745,-0.217872,10.984597,1.782134,-29.028149,-8.943251
676000,0.294487,-0.191536,11.025299,0.789768,-27.562500,-8.500503
680000,0.294487,-0.167594,11.279084,0.942440,-23.241888,-8.332563
684000,0.153229,-0.122104,11.255142,0.163814,-18.325859,-7.798213
688000,-0.110133,-0.119710,11.135432,-0.935423,-13.318225,-7.218060
692000,-0.268151,0.107739,11.077971,-1.927789,-9.638836,-6.240961
696000,-0.332794,0.141258,11.054029,-3.164430,-6.005247,-5.431800
700000,-0.457293,0.126893,11.161768,-3.607178,-2.997614,-4.882182
704000,-0.557849,0.579397,11.310209,-5.332370,2.300096,-3.385999
708000,-0.311246,0.577003,11.674128,-2.904888,5.643608,-1.355464
712000,-0.203507,0.598550,11.164163,-2.920156,10.987119,-0.332564
716000,-0.141258,0.550666,10.907983,-2.767484,15.887882,0.598734
720000,-0.057461,0.624887,10.850522,-4.187331,16.727577,1.255223
724000,0.007183,0.758962,11.353305,-4.965958,13.597806,1.865910
728000,0.426168,0.876278,11.894394,-4.584278,7.552005,1.606368
732000,0.957681,1.079785,12.416330,-2.431606,1.765745,0.751406
736000,1.517924,1.185130,12.528857,1.247783,-3.028148,-0.744777
740000,2.015918,1.233014,12.196063,4.774501,-6.157919,-3.248594
744000,2.142811,1.321599,11.729194,6.789768,-8.799141,-6.408899
748000,1.742979,1.405396,10.996569,7.919539,-13.516698,-8.943251
752000,1.209072,1.388637,10.721235,7.858470,-22.539598,-10.607373
756000,0.651223,1.417367,10.742783,6.759233,-31.440363,-11.324930
760000,0.328006,1.460463,11.123461,5.721066,-36.936546,-11.019587
764000,0.330400,1.520318,11.362882,5.736333,-37.562500,-10.363098
768000,0.469264,1.465251,11.355699,5.201982,-30.875477,-9.324930
772000,0.507571,1.443704,11.224017,4.377554,-21.180820,-8.286762
776000,0.354342,1.515530,11.264719,3.583661,-11.959446,-7.233327
780000,0.356736,1.484405,11.018116,2.591295,-5.669369,-6.256227
784000,0.840365,1.565808,10.620679,1.079844,-0.142652,-6.576838
788000,1.326388,1.616086,10.232818,-0.798018,4.177959,-7.492869
792000,1.470040,1.745373,10.213664,-2.233133,7.552005,-9.324930
796000,1.280898,1.855506,9.825804,-3.607178,9.903150,-10.576838
800000,1.240196,2.032677,9.528923,-5.805653,10.605439,-11.309663
804000,1.204283,2.035071,9.325416,-8.553743,10.483302,-12.225694
808000,1.060631,2.173935,9.119514,-11.317102,9.719943,-12.989053
812000,0.957681,2.300828,9.234436,-13.759851,7.460402,-13.141725
816000,0.945710,2.303222,9.473856,-15.515576,6.071089,-13.599740
820000,0.849942,2.401384,9.481039,-16.752216,6.010020,-13.752412
824000,0.768539,2.128445,9.610326,-18.126263,6.361165,-13.508137
828000,0.644040,2.099715,10.199299,-20.004124,5.185593,-13.416533
832000,0.881066,2.394202,11.192893,-19.698780,2.605440,-13.477602
836000,1.414973,2.442086,12.006922,-16.630079,1.613073,-14.637908
840000,2.018312,2.418144,12.059594,-13.118629,3.735211,-16.393633
844000,2.245761,2.327164,11.683704,-10.782751,6.712310,-18.363098
848000,2.442086,2.238579,11.640609,-9.362904,7.490936,-21.019587
852000,2.432509,2.377442,11.671733,-8.523210,5.643608,-23.431799
856000,2.341529,2.552219,11.868058,-6.278934,-1.440362,-26.485235
860000,2.178724,2.473210,11.281479,-5.027026,-8.081583,-28.851646
864000,2.166753,2.494758,10.977415,-5.179698,-12.096850,-30.424166
868000,2.104503,2.552219,10.776301,-6.065194,-12.967080,-32.149357
872000,1.671153,2.693477,10.558430,-6.935423,-10.951813,-33.385998
876000,1.103727,2.873042,10.402806,-7.897255,-9.119752,-33.111191
880000,0.715866,2.956839,9.991004,-9.256034,-8.142652,-31.569204
884000,0.560243,2.832341,8.999804,-12.614812,-5.257155,-29.553938
888000,0.821211,2.978387,9.117120,-17.210232,-1.562499,-27.767677
892000,0.854730,3.122039,9.521740,-18.721682,3.002386,-26.469967
896000,1.187524,3.107674,9.696517,-20.721682,5.628341,-25.019587
900000,1.544260,2.916138,10.046070,-21.133896,9.613073,-24.164623
904000,1.795651,2.861071,10.206482,-21.240767,12.712310,-24.134090
908000,2.238579,2.786851,10.532093,-21.133896,14.819180,-24.989052
912000,2.715025,2.758120,11.039664,-19.622444,15.399332,-27.294395
916000,3.088520,2.827552,10.967838,-18.492674,16.284828,-30.469967
920000,2.770091,2.873042,11.173739,-16.095728,13.231394,-32.424168
924000,2.669535,2.662352,10.967838,-14.584277,9.613073,-34.729511
928000,2.269703,2.384625,10.656591,-13.927789,7.552005,-36.042488
932000,1.663970,2.509123,10.321404,-15.301835,2.926050,-37.416534
936000,0.928950,2.408567,10.340557,-18.110994,-2.906011,-37.172256
940000,0.545878,2.358289,11.013328,-18.828552,-9.196087,-36.271496
944000,0.562637,2.398990,11.434708,-18.553743,-13.486164,-34.989052
948000,0.627281,2.348712,11.461043,-18.278934,-13.394561,-33.920349
952000,0.703895,2.303222,11.520899,-17.775116,-10.478530,-32.424168
956000,0.859518,2.322376,11.508927,-15.652980,-5.715171,-31.523403
960000,0.694318,2.221819,11.350910,-15.561378,-0.218988,-31.111189
964000,0.442927,2.207454,11.401189,-14.736949,2.483302,-30.927982
968000,0.316035,2.322376,11.441890,-13.515576,2.742844,-30.424166
972000,0.256180,2.398990,11.422736,-12.752217,3.460402,-29.630274
976000,0.136469,2.193089,11.219229,-11.790385,4.177959,-28.302029
980000,0.294487,2.171541,10.790668,-11.072827,3.811547,-26.515770
984000,0.538695,2.197877,10.759542,-12.110995,3.735211,-25.645540
988000,0.653617,2.185906,10.907983,-12.324737,3.903150,-25.202791
992000,0.531513,2.173935,10.970232,-11.790385,3.063455,-24.805845
996000,0.337582,2.123657,10.596737,-10.599545,1.490936,-23.844013
1000000,0.383072,2.281674,10.127473,-10.630079,-0.951812,-22.500502
1004000,0.679953,2.217031,10.019734,-12.065194,-4.142652,-22.149357
1008000,0.952892,2.097321,10.172963,-13.515576,-7.638835,-22.347830
1012000,1.077391,2.102109,10.496181,-14.233132,-12.447996,-23.218060
1016000,0.964863,2.068590,10.879252,-14.172065,-14.600668,-23.248594
1020000,1.072602,2.068590,11.082760,-13.515576,-14.722805,-23.004318
1024000,1.292869,1.982399,11.166556,-12.523210,-12.829675,-22.592106
1028000,1.331176,2.035071,11.231200,-10.996491,-10.722805,-22.714243
1032000,1.039083,2.090138,11.123461,-9.912522,-10.157920,-22.958517
1036000,0.816423,2.085350,11.204864,-8.950690,-10.646469,-22.805845
1040000,0.739808,2.015918,10.963050,-7.485042,-10.447996,-22.378365
1044000,0.608127,1.924938,10.670957,-6.965958,-8.692270,-21.935617
1048000,0.318429,1.812411,10.536881,-7.072827,-6.371659,-20.393631
1052000,0.119710,1.719037,10.407595,-7.637713,-5.745705,-18.805845
1056000,0.110133,1.577779,10.591949,-9.057561,-6.570133,-17.034853
1060000,0.237026,1.671153,10.836157,-9.714049,-7.409827,-16.317297
1064000,0.421380,1.659182,11.164163,-9.775118,-8.035782,-15.905083
1068000,0.411803,1.589750,11.281479,-8.798018,-7.760972,-15.187526
1072000,0.215478,1.472434,11.164163,-7.210233,-7.409827,-13.737144
1076000,0.201113,1.398214,11.121067,-6.843820,-7.638835,-11.996686
1080000,0.248997,1.364695,11.049241,-6.614813,-8.738072,-11.370732
1084000,0.112527,1.410185,11.073183,-6.034659,-11.531965,-10.622641
1088000,0.105345,1.189918,11.168951,-6.294202,-12.921278,-9.706610
1092000,0.232238,1.192312,11.101913,-5.958323,-12.402194,-8.546305
1096000,0.368707,1.053449,11.054029,-6.110995,-10.264790,-7.477602
1100000,0.447716,1.120486,10.917560,-6.630079,-6.356392,-6.698976
1104000,0.184354,1.084573,10.915166,-7.591911,-3.394560,-5.721877
1108000,-0.181959,1.122881,11.080365,-8.172065,-2.677003,-4.179892
1112000,-0.256180,1.132457,11.563994,-7.546110,-4.325858,-2.378365
1116000,0.167594,1.106121,11.789049,-5.759851,-5.409827,-0.546304
1120000,0.684742,0.964863,11.815386,-3.683514,-3.547232,0.171253
1124000,1.130063,0.969652,11.631032,-1.866720,-1.501431,-0.302029
1128000,1.125275,0.952892,11.604695,-0.172064,-0.844942,-1.248594
1132000,0.964863,1.058237,11.676521,1.583661,-3.104484,-1.889816
1136000,0.952892,1.110910,11.635820,3.721066,-6.600667,-2.668442
1140000,1.106121,0.916979,11.437101,5.690531,-8.127385,-3.569205
1144000,1.156399,0.909797,11.159374,6.881371,-7.012881,-4.515770
1148000,1.060631,0.967257,10.936713,8.118012,-5.501431,-5.004319
1152000,0.859518,1.036689,10.757148,9.018776,-5.364026,-4.943251
1156000,0.670376,0.895431,10.496181,9.018776,-5.593033,-4.790579
1160000,0.332794,0.902614,10.156203,7.766867,-6.844942,-3.492869
1164000,0.404620,0.811634,9.995792,6.118012,-8.814408,-2.454701
1168000,0.667982,0.725443,10.012551,4.270684,-10.142653,-1.431800
1172000,0.900220,0.773327,10.206482,2.682898,-10.982347,-1.447067
1176000,0.687136,0.694318,10.522516,2.041676,-11.287690,-0.989052
1180000,0.395043,0.615310,10.448297,1.659997,-12.402194,-0.011953
1184000,0.416591,0.490811,10.548853,0.728699,-13.348759,1.239955
1188000,0.598550,0.624887,10.728417,-0.095728,-12.829675,1.774307
1192000,0.780510,0.579397,10.840945,-0.217866,-10.783874,2.140719
1196000,0.790087,0.569820,10.800244,-0.569010,-8.081583,2.171253
1200000,0.646434,0.416591,10.771513,-1.393438,-5.852575,2.491864
1204000,0.615310,0.445322,10.924743,-2.034660,-4.463263,3.209421
1208000,0.677559,0.505177,10.931925,-2.324736,-3.531965,3.484231
1212000,0.531513,0.584185,11.037270,-2.462140,-4.005247,4.247589
1216000,0.538695,0.627281,10.994174,-2.798018,-5.150285,5.072017
1220000,0.718261,0.509965,10.943896,-2.675881,-6.280056,5.804841
1224000,0.972046,0.536301,11.109096,-2.569010,-6.982347,5.591101
1228000,1.328782,0.538695,11.501745,-1.485041,-6.783873,5.102551
1232000,1.666364,0.565032,11.619061,0.224882,-5.241889,3.621635
1236000,1.776498,0.586579,11.463438,2.087478,-1.654102,2.094917
1240000,1.584962,0.646434,11.257536,3.186715,1.490936,1.117818
1244000,1.328782,0.610521,11.070788,4.484425,3.231394,0.476597
1248000,1.125275,0.715866,10.754754,5.018775,3.368799,0.629268
1252000,1.355118,0.608127,10.591949,4.957707,3.078722,0.064383
1256000,1.620875,0.641646,10.484209,4.347020,3.231394,-1.202793
1260000,1.486799,0.603339,10.488997,3.507325,3.200860,-2.485235
1264000,1.252167,0.670376,10.668563,3.400455,2.086356,-2.866915
1268000,1.151611,0.610521,10.579977,3.690531,0.574905,-3.019587
1272000,1.180341,0.526724,10.503363,3.797401,-0.890743,-3.080655
1276000,0.986411,0.418985,10.395624,3.537859,-1.959446,-3.477602
1280000,0.763750,0.390255,10.371682,2.774501,-3.760972,-3.370732
1284000,0.359130,0.342371,10.304645,1.614195,-5.883110,-3.263861
1288000,0.320823,0.354342,10.603919,0.545493,-7.593033,-2.531037
1292000,0.253785,0.354342,10.836157,0.240150,-7.531965,-1.630274
1296000,0.299275,0.371101,10.910378,0.881371,-5.699903,-0.882182
1300000,0.234632,0.189142,10.776301,0.606562,-3.119751,0.247589
1304000,0.134075,0.265756,10.723629,-0.049927,-1.623568,1.621635
1308000,0.275333,0.225055,10.831368,-0.263667,-1.165553,1.896444
1312000,0.277727,0.258574,11.044453,-0.416339,-0.982347,1.972780
1316000,0.227449,0.301669,11.106702,0.240150,-1.104484,2.446062
1320000,0.318429,0.344765,11.161768,1.308852,-0.554866,2.812474
1324000,0.502782,0.380678,11.056423,2.652363,1.032921,2.843009
1328000,0.402226,0.481235,11.106702,3.537859,1.689409,3.026215
1332000,0.220267,0.409408,11.156980,4.728699,0.773379,3.530032
1336000,0.521936,0.407014,11.121067,5.492058,-0.478530,3.957513
1340000,0.744597,0.275333,11.087548,6.148546,-0.615934,3.560566
1344000,0.713472,0.392649,11.061212,7.034043,-0.386927,3.377360
1348000,0.852336,0.387861,11.068395,7.843203,-0.447995,3.346826
1352000,1.089362,0.392649,10.917560,9.308852,-0.249522,3.148352
1356000,1.067814,0.356736,10.441113,9.293585,0.071089,3.010948
1360000,0.960075,0.296881,10.070012,8.163814,-0.447995,3.056749
1364000,0.945710,0.296881,9.952697,6.514959,-2.112118,3.041482
1368000,0.919373,0.282516,9.957485,4.423356,-3.043415,3.209421
1372000,0.914585,0.335188,10.247183,2.759233,-3.486163,3.530032
1376000,0.964863,0.339977,10.261548,1.904272,-3.516698,3.850643
1380000,1.065420,0.361524,10.362105,1.217249,-2.310591,4.507131
1384000,1.034295,0.308852,10.362105,0.576027,-1.119751,4.843009
1388000,0.931344,0.217872,10.524911,-0.217866,-0.432728,5.209421
1392000,0.883460,0.392649,10.613496,-0.721682,-0.768606,5.362093
1396000,0.897826,0.342371,10.642226,-1.057560,-1.012881,5.377360
1400000,0.881066,0.258574,10.409989,-1.515576,-0.585400,5.209421
1404000,0.706290,0.275333,10.517728,-2.477408,-0.066316,5.545299
1408000,0.354342,0.189142,10.711658,-3.362904,-0.753339,6.278123
1412000,0.359130,0.174777,10.970232,-3.393438,-2.402194,7.453696
1416000,0.596156,0.150835,11.082760,-3.256034,-3.669369,8.446062
1420000,0.878672,0.114922,11.235989,-3.408705,-3.791507,8.583467
1424000,1.048660,0.119710,11.434708,-3.103362,-2.646469,8.552932
1428000,1.055843,0.079009,11.482592,-2.569010,-1.699904,8.339191
1432000,1.165976,0.040701,11.487380,-1.943056,-1.028148,8.140718
1436000,1.259350,0.047884,11.611878,-1.088094,-1.058682,7.468963
1440000,1.139640,0.088585,11.698070,0.240150,-1.806774,7.041482
1444000,1.201889,0.083797,11.686098,1.400455,-3.806774,6.781940
1448000,1.532289,0.021548,11.781867,2.392821,-5.073949,6.064383
1452000,1.599327,0.045490,11.798626,3.446256,-4.738071,4.797207
1456000,1.517924,0.014365,11.947066,4.408089,-4.280056,3.209421
1460000,1.307234,-0.043096,12.066776,6.102745,-2.890743,2.644536
1464000,1.163582,0.126893,11.951855,7.873737,-1.257156,2.736139
1468000,1.149217,0.126893,11.820174,9.629462,0.605440,2.659803
1472000,1.335965,0.107739,11.494562,11.018776,2.361165,2.415528
1476000,1.532289,0.045490,11.070788,11.324119,3.200860,2.262856
1480000,1.618480,-0.071826,10.582372,10.301218,2.971852,1.331558
1484000,1.532289,0.055067,10.338163,8.347020,1.460402,0.384994
1488000,1.458069,0.026336,10.319010,6.469157,-0.707537,-0.256228
1492000,1.407791,0.071826,10.429143,5.064577,-2.783873,-0.760045
1496000,1.364695,0.119710,10.445902,3.797401,-3.455629,-0.653174
1500000,1.477222,0.112527,10.642226,3.400455,-2.005247,-0.576838
1504000,1.424550,0.090980,10.608707,2.850837,0.055821,-0.546304
1508000,1.405396,0.062249,10.663774,2.041676,0.987119,-0.332564
1512000,1.290475,0.074220,10.783484,1.476791,1.445134,-0.500503
1516000,1.235408,0.069432,10.884041,1.369921,1.078722,-0.347831
1520000,0.857124,0.155623,10.936713,1.232516,-0.188453,-0.103556
1524000,0.993594,0.110133,11.221623,1.950073,-1.211354,0.614001
1528000,1.221043,0.172383,11.279084,2.881371,-1.302957,0.430795
1532000,1.302446,0.059855,11.250354,3.293585,0.040554,-0.103556
1536000,1.175553,0.019154,11.355699,3.721066,0.651241,-0.714243
1540000,0.893037,0.093374,11.590330,4.652363,-0.035782,-0.729510
1544000,0.739808,0.090980,11.439496,5.797401,-0.478530,-0.103556
1548000,0.653617,0.014365,11.331757,6.301218,-0.417461,0.461329
1552000,0.670376,0.126893,11.257536,6.652363,-1.409827,1.087284
1556000,0.905008,0.050278,11.329363,7.278317,-1.913644,1.377360
1560000,1.206678,0.040701,11.176133,7.522593,-1.226621,1.316291
1564000,1.474828,0.011971,11.044453,7.140913,-0.631201,0.491864
1568000,1.503559,0.000000,11.066000,6.896638,-0.753339,-0.454701
1572000,1.735796,0.033519,11.173739,7.308852,-1.012881,-1.523403
1576000,1.788469,0.009577,11.054029,7.904272,-0.921278,-2.851648
1580000,1.632846,-0.038307,10.898406,7.995874,-0.783873,-4.103556
1584000,1.302446,0.002394,10.680533,7.797401,-1.928911,-4.637907
1588000,1.029507,-0.035913,10.615891,7.324119,-3.302957,-4.469968
1592000,0.885855,0.014365,10.520123,6.591295,-4.631201,-4.240961
1596000,0.881066,0.050278,10.465055,5.476791,-5.104484,-4.011953
1600000,0.826000,0.016759,10.500969,4.652363,-4.860209,-3.355464
1604000,0.873884,0.057461,10.524911,3.629463,-3.501430,-3.065388
1608000,0.881066,0.098162,10.287885,3.095111,-2.203721,-2.698976
1612000,0.677559,0.098162,10.120291,1.889004,-1.409827,-2.042487
1616000,0.581791,0.162806,10.041282,0.545493,-1.409827,-1.553938
1620000,0.385466,0.114922,9.923966,-0.981224,-2.402194,-0.637907
1624000,0.292093,0.122104,10.196905,-1.958324,-3.806774,0.400261
1628000,0.289698,0.148441,10.340557,-2.691148,-5.196087,1.835375
1632000,0.316035,0.220267,10.594342,-2.721682,-6.447995,3.713238
1636000,0.715866,0.074220,10.788273,-2.217866,-6.203721,4.384994
1640000,0.921768,0.019154,10.931925,-2.034660,-4.722805,4.629269
1644000,1.024718,0.047884,11.135432,-1.576644,-3.379293,4.415528
1648000,1.108515,0.045490,11.341333,-0.507942,-2.051049,4.339192
1652000,1.130063,0.110133,11.350910,0.362287,-1.593034,4.186521
1656000,0.823605,0.186748,11.580753,1.659997,-2.112118,4.537665
1660000,0.916979,0.119710,11.860875,3.385188,-2.860209,5.270490
1664000,1.053449,0.222661,11.844116,5.125646,-2.295324,5.133085
1668000,1.335965,0.258574,11.736377,6.606562,-0.951812,4.995681
1672000,1.424550,0.189142,11.609484,7.553127,0.895516,4.812475
1676000,1.453280,0.181959,11.365275,7.736333,1.582539,4.110185
1680000,1.606509,0.138864,11.195287,7.827936,1.032921,3.209421
1684000,1.745373,0.160412,10.929531,7.003509,0.422234,1.636902
1688000,1.771709,0.172383,10.876859,5.904272,-0.371659,-0.256228
1692000,1.474828,0.198719,10.812215,5.217249,-1.104484,-1.569205
1696000,1.115698,0.318429,10.869676,4.530226,-1.883110,-1.905083
1700000,0.976834,0.371101,10.896012,4.499691,-2.417461,-1.553938
1704000,0.976834,0.395043,11.049241,4.728699,-2.280056,-0.989052
1708000,1.034295,0.462081,11.113884,5.125646,-2.783873,-0.866915
1712000,1.273715,0.385466,10.943896,5.201982,-2.997614,-0.515770
1716000,1.297657,0.385466,10.714052,4.820302,-2.570133,-0.866915
1720000,1.204283,0.402226,10.568007,3.675264,-2.249522,-1.279129
1724000,1.017536,0.409408,10.570400,2.606562,-3.104484,-1.447067
1728000,1.022324,0.359130,10.819398,2.347020,-4.386927,-1.187526
1732000,1.295263,0.423774,11.034876,2.698165,-4.081583,-1.263861
1736000,1.379060,0.411803,11.128249,3.492058,-2.707537,-1.431800
1740000,1.484405,0.301669,11.279084,4.301219,-0.661736,-1.676075
1744000,1.319205,0.287304,11.279084,5.049310,0.727577,-1.828747
1748000,1.130063,0.301669,11.386824,5.950073,0.574905,-1.706609
1752000,1.158794,0.395043,11.305421,6.835569,-0.447995,-1.492869
1756000,1.252167,0.339977,11.054029,7.598928,-1.196087,-1.721877
1760000,1.266533,0.229843,10.852917,7.980608,-0.753339,-1.859281
1764000,1.290475,0.246603,10.685322,7.812669,-0.753339,-2.378365
1768000,1.247379,0.258574,10.575189,7.583661,-1.516698,-2.515770
1772000,1.055843,0.229843,10.366894,6.392821,-2.631201,-2.698976
1776000,0.964863,0.227449,10.374076,5.064577,-3.867843,-2.866915
1780000,0.823605,0.265756,10.599131,4.163814,-5.333491,-2.698976
1784000,0.881066,0.316035,10.651803,3.324119,-6.066316,-2.118823
1788000,0.967257,0.181959,10.721235,3.308852,-5.837308,-2.073022
1792000,1.235408,0.064643,10.800244,3.079844,-4.677003,-2.439434
1796000,1.379060,0.138864,10.807426,2.606562,-3.715171,-3.355464
1800000,1.304840,0.105345,10.855310,2.530226,-3.272423,-4.393632
1804000,0.974440,0.069432,10.812215,2.194348,-4.463263,-4.637907
1808000,0.720655,0.169988,10.845734,1.934806,-5.745705,-4.302029
1812000,0.713472,0.126893,10.864887,1.766867,-6.738071,-3.706610
1816000,0.718261,0.122104,10.967838,1.751600,-7.211354,-3.477602
1820000,0.799663,0.112527,11.082760,1.934806,-6.814407,-2.943251
1824000,0.816423,0.160412,11.106702,2.194348,-6.447995,-3.080655
1828000,0.809240,0.143652,11.080365,2.270684,-6.096850,-2.714243
1832000,0.797269,0.150835,11.125855,2.469157,-6.066316,-2.454701
1836000,0.708684,0.167594,11.152191,3.034043,-6.325858,-2.118823
1840000,0.749385,0.217872,11.087548,3.721066,-5.898377,-1.599739
1844000,0.840365,0.141258,11.025299,3.614195,-4.753339,-1.294396
1848000,0.888249,0.071826,10.817003,3.614195,-3.257156,-0.897449
1852000,0.754174,0.174777,10.852917,2.957707,-2.707537,-0.408900
1856000,0.763750,0.287304,10.869676,2.560760,-2.906011,0.064383
1860000,0.758962,0.306458,10.860099,1.965340,-3.730438,0.781940
1864000,0.859518,0.234632,10.797850,1.553127,-4.310591,1.331558
1868000,0.991199,0.248997,10.855310,1.125646,-4.570133,1.468963
1872000,1.043872,0.308852,10.828975,0.927172,-5.012881,1.957513
1876000,1.209072,0.277727,11.006145,0.927172,-5.455629,1.911711
1880000,1.333570,0.237026,11.077971,1.247783,-5.043415,1.697971
1884000,1.233014,0.258574,11.180922,1.171447,-4.860209,1.224688
1888000,1.168370,0.263362,11.599907,1.843203,-5.302957,0.705604
1892000,1.264138,0.339977,11.724405,3.156180,-5.745705,0.659803
1896000,1.460463,0.330400,11.796232,4.560760,-4.906011,0.430795
1900000,1.632846,0.292093,11.561600,5.675264,-3.180820,-0.531037
1904000,1.709460,0.275333,11.463438,6.087478,-1.486163,-1.599739
1908000,1.640028,0.280122,11.350910,6.224882,-0.539598,-2.821113
1912000,1.462857,0.232238,11.432313,6.408089,-0.661736,-3.676075
1916000,1.216254,0.246603,11.427525,7.018775,-1.638835,-4.057755
1920000,1.098939,0.263362,11.427525,7.522593,-2.310591,-4.088289
1924000,1.146823,0.258574,11.511322,8.041677,-2.280056,-3.905083
1928000,1.079785,0.272939,11.547235,8.911905,-1.577766,-3.859281
1932000,1.041478,0.363919,11.403583,9.644730,-0.890743,-3.599739
1936000,1.029507,0.402226,11.221623,10.072210,-0.524331,-3.691342
1940000,0.988805,0.366313,11.087548,10.255417,0.055821,-3.492869
1944000,0.897826,0.399832,10.951078,10.072210,0.101623,-3.187526
1948000,0.866701,0.368707,10.845734,9.430989,0.025287,-2.821113
1952000,0.878672,0.445322,10.781090,8.774501,-0.432728,-2.469968
1956000,0.914585,0.442927,10.759542,8.514958,-0.539598,-2.057755
1960000,0.909797,0.404620,10.670957,8.209616,-0.310591,-1.737144
1964000,0.840365,0.421380,10.661380,7.827936,-0.051049,-1.156991
1968000,0.837971,0.442927,10.539276,6.881371,0.025287,-0.729510
1972000,0.811634,0.462081,10.512939,6.102745,-0.478530,-0.378365
1976000,0.888249,0.521936,10.579977,5.400455,-0.646469,0.217055
1980000,0.890643,0.373495,10.402806,4.866104,-0.386927,0.293391
1984000,0.881066,0.385466,10.386047,4.209615,-0.005247,0.629268
1988000,0.950498,0.351948,10.390836,3.415722,0.193226,1.056749
1992000,1.127669,0.311246,10.556035,3.186715,-0.783873,1.239955
1996000,1.441309,0.371101,10.714052,2.942440,-0.875476,0.491864
