time_us,ax,ay,az,gx,gy,gz
0,0.763750,0.332794,10.867282,1.247783,-2.478530,0.980413
4000,0.885855,0.299275,11.030087,1.644730,-3.058682,0.980413
8000,0.998382,0.320823,10.960655,2.377554,-2.722805,0.659803
12000,1.074997,0.318429,10.994174,2.469157,-1.959446,0.598734
16000,0.940921,0.265756,10.982203,2.698165,-1.318224,0.262856
20000,1.034295,0.306458,10.802638,2.713432,-1.883110,0.110184
24000,1.003170,0.306458,10.852917,2.637096,-2.753339,0.094917
28000,0.950498,0.311246,10.728417,2.499691,-4.051049,-0.439434
32000,0.924162,0.272939,10.656591,1.812669,-4.783873,-0.393632
36000,0.991199,0.275333,10.692505,1.614195,-4.906011,-0.592106
40000,0.960075,0.325611,10.591949,1.186714,-4.875476,-0.714243
44000,0.921768,0.337582,10.680533,0.637096,-4.264789,-0.958518
48000,0.758962,0.313640,10.668563,0.194348,-3.425095,-0.973785
52000,0.622492,0.311246,10.666168,-0.614812,-3.180820,-0.439434
56000,0.670376,0.318429,10.747571,-0.950690,-2.814408,-0.164625
60000,0.758962,0.339977,10.824186,-1.057560,-1.699904,-0.134090
64000,0.811634,0.263362,10.864887,-1.469774,-0.799140,-0.011953
68000,0.775721,0.344765,10.912771,-1.652980,-0.661736,0.155986
72000,0.758962,0.263362,10.939108,-1.652980,-0.936545,0.278123
76000,0.737414,0.294487,11.022904,-1.714049,-1.516698,0.232322
80000,0.763750,0.301669,11.216835,-0.950690,-2.585400,0.262856
84000,0.826000,0.306458,11.453861,0.270684,-3.073950,0.552933
88000,0.962469,0.129287,11.413159,1.629462,-2.280056,0.476597
92000,1.048660,0.201113,11.252748,2.118012,-1.028148,0.339192
96000,1.012747,0.126893,11.247959,2.438623,-0.417461,0.094917
100000,1.039083,0.057461,11.238382,2.805035,-1.012881,-0.240961
104000,1.022324,0.062249,11.145009,2.850837,-2.234255,-0.531037
108000,1.127669,0.055067,11.104307,2.560760,-3.577766,-1.187526
112000,1.079785,0.047884,11.094730,2.347020,-4.692270,-1.523403
116000,1.101333,0.102951,11.154586,2.347020,-5.379293,-1.889816
120000,0.969652,0.100556,11.303026,2.774501,-5.531965,-2.195159
124000,0.809240,0.050278,11.221623,2.881371,-5.287690,-1.859281
128000,0.684742,0.112527,11.200075,3.293585,-5.089217,-1.889816
132000,0.656011,0.098162,11.049241,3.247783,-4.478529,-1.431800
136000,0.792481,0.110133,10.955867,3.201982,-3.898377,-1.309663
140000,0.742203,0.107739,10.817003,2.850837,-2.478530,-1.004319
144000,0.696713,0.114922,10.630256,1.919539,-1.928911,-0.729510
148000,0.644040,0.079009,10.694899,1.125646,-1.730438,-0.378365
152000,0.586579,0.232238,10.673351,0.240150,-2.524331,-0.011953
156000,0.632069,0.232238,10.797850,-0.202598,-3.226621,0.552933
160000,0.809240,0.215478,10.874464,-0.401072,-3.638835,0.507131
164000,0.952892,0.234632,10.982203,-0.355270,-3.470896,0.446062
168000,1.024718,0.217872,11.003751,0.194348,-2.738072,0.155986
172000,1.005565,0.117316,10.946290,0.591295,-1.867843,0.217055
176000,0.912191,0.138864,10.850522,0.911905,-1.837308,0.003314
180000,0.833182,0.141258,10.893618,0.942440,-2.035782,0.049116
184000,0.804452,0.155623,10.965444,1.095111,-2.463263,-0.073022
188000,0.667982,0.191536,11.039664,1.553127,-2.951812,-0.103556
192000,0.766145,0.172383,11.006145,1.537859,-3.638835,0.446062
196000,0.758962,0.098162,10.979809,2.392821,-3.257156,0.720871
200000,0.852336,0.038307,10.805033,2.133279,-2.417461,0.705604
204000,0.706290,-0.004788,10.740389,2.148547,-2.325858,0.797207
208000,0.687136,-0.007183,10.515334,1.430989,-3.104484,0.797207
212000,0.809240,-0.100556,10.500969,0.621829,-4.249522,0.507131
216000,0.818817,-0.148441,10.536881,-0.630080,-4.890743,-0.103556
220000,0.636858,-0.059855,10.635044,-1.301835,-6.402194,-0.332564
224000,0.517148,-0.129287,10.845734,-1.698782,-7.928911,0.033849
228000,0.634463,-0.146046,10.927136,-1.652980,-8.921278,0.369726
232000,0.708684,-0.160412,11.092337,-1.408705,-7.913644,0.430795
236000,0.653617,-0.179565,11.066000,-1.072828,-7.180820,0.461329
240000,0.620098,-0.248997,11.154586,-0.843820,-6.890743,0.766673
244000,0.658405,-0.181959,11.195287,0.041676,-7.043415,1.087284
248000,0.766145,-0.256180,11.245565,0.637096,-6.875476,0.934612
252000,0.749385,-0.373495,11.171345,0.942440,-6.554865,1.041482
256000,0.876278,-0.426168,11.283873,1.064577,-7.119751,0.858276
260000,0.830788,-0.438139,11.432313,1.492058,-8.005247,0.751406
264000,0.806846,-0.421380,11.662156,2.408089,-9.287690,0.736139
268000,0.861913,-0.476446,11.659762,3.812669,-9.623569,0.736139
272000,0.905008,-0.586579,11.554418,4.698165,-9.257156,0.766673
276000,0.957681,-0.620098,11.449073,5.583661,-7.867843,0.720871
280000,0.976834,-0.665588,11.384429,6.392821,-7.226621,0.522398
284000,0.826000,-0.691924,11.382035,6.408089,-8.142652,0.293391
288000,0.775721,-0.696713,11.319786,6.881371,-9.593034,0.308658
292000,0.758962,-0.691924,11.216835,6.896638,-11.211354,0.522398
296000,0.756568,-0.727837,11.200075,6.621829,-11.699904,0.568200
300000,0.656011,-0.739808,11.173739,6.652363,-11.898377,0.537665
304000,0.624887,-0.859518,11.034876,6.392821,-11.898377,0.904078
308000,0.526724,-0.840365,11.128249,6.438623,-11.745706,1.362093
312000,0.550666,-0.940921,11.159374,6.087478,-11.394561,1.682703
316000,0.495600,-0.883460,11.216835,5.889005,-10.585401,1.789574
320000,0.337582,-0.818817,11.221623,6.118012,-10.646469,2.690337
324000,0.335188,-0.890643,11.283873,6.423356,-10.341125,3.530032
328000,0.397437,-0.840365,11.250354,6.743966,-8.768606,4.461329
332000,0.512359,-0.945710,11.264719,7.079844,-7.669369,5.178887
336000,0.507571,-0.890643,11.149797,6.835569,-7.150285,5.759039
340000,0.454898,-1.027112,11.183316,6.866104,-7.119751,6.843009
344000,0.651223,-1.106121,11.039664,6.392821,-8.157919,7.621635
348000,1.070208,-1.206678,11.109096,5.766867,-9.150286,7.362093
352000,1.436521,-1.273715,11.140221,5.217249,-9.333492,6.675070
356000,1.438915,-1.424550,11.235989,4.759233,-9.486164,5.652169
360000,1.194707,-1.381454,11.638214,4.896638,-11.073950,5.087284
364000,1.199495,-1.374272,11.875240,5.919539,-13.440362,5.087284
368000,1.424550,-1.465251,12.188881,7.675264,-14.493797,4.308658
372000,1.520318,-1.587356,12.275072,9.736333,-14.142653,3.453696
376000,1.568202,-1.711854,12.277467,12.224882,-12.906011,2.690337
380000,1.735796,-1.735796,11.377247,13.125646,-10.280057,2.262856
384000,2.231396,-2.276886,11.250354,12.652363,-5.745705,-1.279129
388000,0.988805,-1.977611,10.924743,10.881371,-5.959445,-1.966151
392000,0.172383,-1.984793,11.812991,10.682898,-10.432729,-0.958518
396000,-0.217872,-1.946486,12.150574,12.530226,-14.829675,1.117818
400000,-0.083797,-1.972822,12.196063,14.728699,-15.944179,3.285757
404000,0.169988,-2.013524,12.176909,16.087479,-12.661736,5.407895
408000,0.179565,-2.094927,12.064383,17.476791,-8.463263,6.965147
412000,0.263362,-2.116474,11.942278,18.331753,-6.112117,8.033848
416000,0.514753,-2.200271,11.666945,18.698166,-5.470896,8.797207
420000,0.761356,-2.188300,11.444284,18.163815,-5.272423,8.354459
424000,0.957681,-2.133234,11.444284,17.812670,-4.646469,7.728505
428000,0.873884,-2.157176,11.439496,17.644730,-3.348759,7.194154
432000,0.758962,-2.075773,11.403583,17.736334,-2.478530,7.774307
436000,0.644040,-2.061408,11.425131,18.285952,-1.715171,8.308658
440000,0.691924,-1.912967,11.422736,18.285952,-1.699904,9.346826
444000,1.201889,-2.051831,11.224017,18.285952,-1.501431,9.514764
448000,1.671153,-2.061408,11.034876,17.736334,-0.844942,8.659802
452000,1.778892,-2.066196,11.137826,16.972975,-0.753339,7.407895
456000,1.692701,-2.085350,11.341333,17.293585,-1.333492,6.507131
460000,1.740585,-2.159570,11.439496,18.362288,-2.493797,5.682703
464000,2.013524,-2.248155,11.283873,19.659998,-2.692270,4.690337
468000,2.260126,-2.205060,10.989386,20.545494,-1.989980,2.965146
472000,2.317587,-2.152387,10.577583,20.545494,-1.272423,0.659803
476000,1.965640,-2.035071,10.201694,20.026409,-2.463263,-0.790579
480000,1.889025,-2.217031,10.127473,18.835569,-6.035781,-1.950884
484000,1.561020,-2.257732,9.964667,17.232515,-10.829675,-2.744777
488000,1.307234,-2.276886,9.931149,15.553126,-16.249521,-3.187526
492000,1.041478,-2.231396,9.890448,13.782134,-21.180820,-3.279129
496000,0.828394,-2.094927,9.967062,12.896638,-23.806774,-3.248594
500000,0.375890,-1.922544,10.170568,11.721066,-25.272423,-2.332564
504000,-0.031125,-1.896208,10.398018,11.583661,-25.318224,-0.729510
508000,-0.229843,-1.886631,10.630256,11.843203,-22.890743,0.980413
512000,-0.373495,-1.903390,10.929531,12.698165,-18.585400,2.720871
516000,-0.548272,-1.953669,11.197681,13.721066,-13.440362,4.415528
520000,-0.512359,-1.853112,11.293449,14.835569,-7.135018,5.957513
524000,-0.268151,-1.802834,11.130644,15.690531,0.162692,7.560566
528000,-0.155623,-1.788469,11.133038,16.469158,7.139791,8.781940
532000,0.148441,-1.754950,10.649409,16.285952,12.803913,10.415527
536000,0.421380,-1.889025,10.381259,14.927173,16.742844,11.194154
540000,0.785298,-1.812411,10.443508,12.774501,17.765745,11.804840
544000,1.055843,-1.821988,10.730812,11.018776,16.452768,11.499497
548000,1.249773,-1.757344,11.010934,9.430989,12.330630,11.362092
552000,1.783680,-1.766921,11.487380,9.598928,7.567272,10.995680
556000,2.533065,-1.781286,11.563994,10.224882,4.758111,9.209421
560000,3.129222,-1.836353,11.563994,11.247784,2.834447,6.614001
564000,3.464410,-1.824382,11.422736,11.858470,0.193226,3.194154
568000,3.641581,-1.956063,11.075577,11.614196,-4.997613,-0.882182
572000,3.466804,-1.915361,10.893618,11.125646,-12.341125,-4.989052
576000,3.462016,-1.951274,10.716447,10.621829,-20.692270,-9.462335
580000,2.952051,-1.716643,10.611102,9.354653,-28.600668,-13.416533
584000,2.530671,-1.630451,10.627861,8.805036,-33.913643,-15.523404
588000,1.980005,-1.513135,10.366894,8.774501,-36.875477,-16.439434
592000,1.493982,-1.417367,9.916783,8.240149,-36.051048,-16.408899
596000,1.197101,-1.362301,9.612720,6.789768,-32.295322,-15.889816
600000,0.660800,-1.201889,9.600749,5.232516,-26.051048,-14.057755
604000,0.256180,-1.067814,9.241618,3.736333,-18.783875,-11.920350
608000,-0.002394,-0.936133,8.863335,1.354653,-9.822042,-9.111190
612000,-0.344765,-0.871489,8.511387,-2.217866,0.590173,-6.149357
616000,-0.708684,-0.830788,8.434772,-6.217866,9.811546,-3.416533
620000,-1.278504,-0.658405,8.729259,-10.462141,16.376432,-0.103556
624000,-1.584962,-0.474052,9.447520,-13.423972,19.643608,3.743773
628000,-1.544260,-0.213084,10.390836,-14.080461,21.735210,7.484231
632000,-0.984017,-0.038307,10.929531,-13.194964,25.002386,10.766672
636000,-0.555455,0.213084,11.355699,-11.485042,29.231394,13.545299
640000,-0.129287,0.339977,11.877635,-8.324736,30.926050,15.346826
644000,0.323217,0.572214,12.327744,-5.301835,29.979485,16.339193
648000,0.749385,0.641646,12.512098,-0.965957,25.918417,16.049116
652000,1.582567,0.816423,12.447454,3.354653,21.155058,14.323924
656000,2.269703,0.830788,11.901577,6.698165,17.414600,11.682703
660000,2.794033,0.871489,11.444284,8.392821,14.452767,8.125451
664000,2.937685,0.890643,10.714052,8.621829,9.903150,4.690337
668000,3.215413,0.919373,10.002975,7.278317,2.330631,0.675070
672000,3.646369,1.156399,9.751583,5.110379,-8.203721,-3.798213
676000,3.921702,1.168370,9.469068,1.934806,-21.379293,-9.141725
680000,3.945644,1.261744,9.241618,-1.805652,-34.173187,-14.439434
684000,3.878607,1.335965,9.174581,-5.698782,-46.661736,-19.401266
688000,3.378219,1.429338,9.497798,-8.416339,-57.776241,-23.950884
692000,2.633622,1.656788,10.048465,-9.637713,-67.165550,-26.454700
696000,2.229002,1.723825,10.584765,-9.866721,-72.768600,-28.286762
700000,1.819593,1.762132,10.685322,-8.569011,-71.531960,-28.347830
704000,1.276109,1.750161,10.723629,-7.927790,-64.615929,-27.706610
708000,0.921768,1.568202,10.421960,-7.897255,-52.921280,-26.378365
712000,0.517148,1.563414,10.419566,-8.675881,-39.776241,-24.439434
716000,0.110133,1.704672,10.333375,-10.385805,-26.310591,-21.279127
720000,-0.155623,1.637634,10.177752,-11.286569,-14.325858,-17.889814
724000,-0.208296,1.568202,9.698911,-13.851453,-2.081583,-14.775312
728000,-0.150835,1.589750,9.464279,-16.706415,9.231394,-11.737144
732000,-0.035913,1.635240,9.275137,-19.362904,17.597805,-8.897449
736000,0.134075,1.534683,9.050082,-22.477407,23.109257,-6.653174
740000,0.311246,1.594538,8.844181,-27.423971,24.819180,-4.836380
744000,0.629675,1.711854,9.332599,-31.454506,21.750477,-3.874548
748000,1.510741,1.764527,10.196905,-33.133896,17.002386,-4.729510
752000,2.054225,1.764527,10.876859,-33.210232,14.926050,-6.561571
756000,2.353500,1.764527,11.317391,-33.072826,13.826814,-8.271495
760000,2.796427,1.845930,11.892000,-31.057560,11.002386,-10.485236
764000,3.303998,2.039860,12.346898,-28.507942,8.208493,-13.584473
768000,3.701436,2.073379,12.480973,-25.423971,3.811547,-18.118822
772000,3.780444,1.922544,12.366052,-22.324736,-1.959446,-22.821114
776000,3.564966,2.020706,12.105083,-19.576643,-8.860209,-26.927982
780000,3.335123,2.114080,11.903971,-18.172064,-14.783874,-30.775311
784000,2.978387,2.090138,11.408371,-17.042292,-19.272423,-33.477600
788000,2.540248,2.099715,10.850522,-17.515575,-21.928911,-35.385998
792000,1.951274,2.078167,10.661380,-18.996490,-23.501431,-36.286762
796000,1.601721,2.063802,10.491392,-20.996490,-24.707539,-36.317295
800000,1.398214,2.269703,10.587160,-23.103361,-23.745707,-35.706608
804000,1.237802,2.422932,10.848128,-24.172064,-19.791508,-34.882183
808000,1.199495,2.499547,10.840945,-24.217865,-13.531965,-33.721874
812000,1.108515,2.432509,10.740389,-24.187330,-4.722805,-32.302029
816000,0.955287,2.384625,10.582372,-23.744583,4.544371,-30.637907
820000,0.632069,2.308010,10.213664,-24.446873,10.971851,-28.760044
824000,0.603339,2.164358,10.232818,-25.500307,13.567271,-26.729509
828000,0.735020,2.044648,10.127473,-27.836185,12.941318,-25.431799
832000,0.897826,1.920150,10.488997,-29.943054,10.193226,-24.775311
836000,1.194707,2.030283,11.465832,-30.965958,6.803913,-24.714243
840000,1.558625,2.123657,12.095507,-29.790382,4.040555,-25.340197
844000,2.094927,1.987187,12.241553,-27.408705,4.223761,-26.882181
848000,2.485181,1.896208,12.378023,-24.859087,7.185593,-29.691341
852000,2.276886,1.905785,12.550406,-22.660612,9.307730,-32.989052
856000,2.051831,2.056619,12.720393,-20.065193,8.956584,-35.645538
860000,1.719037,2.205060,12.926295,-15.973592,6.162692,-38.057755
864000,1.362301,2.231396,12.672509,-12.798018,3.429867,-39.538670
868000,0.924162,2.176329,12.325351,-10.278934,1.475669,-40.011951
872000,0.672771,2.164358,11.836933,-9.011759,-0.677003,-39.813480
876000,0.421380,2.171541,11.408371,-9.317102,-2.783873,-39.233326
880000,0.083797,2.157176,11.255142,-10.599545,-6.570133,-38.179890
884000,-0.081403,2.267309,11.156980,-12.172065,-10.692270,-36.943249
888000,-0.141258,2.308010,11.303026,-13.118629,-13.486164,-35.721874
892000,-0.134075,2.410961,11.420342,-12.981225,-13.012881,-34.118824
896000,-0.193930,2.449268,11.525687,-12.156796,-9.684637,-32.439434
900000,-0.258574,2.446874,11.784261,-11.362904,-6.218987,-30.424166
904000,-0.222661,2.578555,12.308591,-9.133897,-3.073950,-28.332563
908000,-0.136469,2.779668,12.399570,-4.553743,-0.768606,-26.134090
912000,0.179565,2.803610,12.078748,-3.286568,4.452768,-25.202791
916000,0.486023,2.485181,11.947066,-1.088094,9.796279,-24.378365
920000,0.620098,2.693477,11.669339,2.942440,12.315363,-23.782946
924000,0.641646,2.834735,11.195287,2.988241,15.277195,-23.691341
928000,0.517148,2.734178,10.838552,2.667631,16.452768,-23.599739
932000,0.316035,2.571373,10.594342,2.270684,13.567271,-23.019587
936000,0.339977,2.671929,10.311827,0.194348,10.712310,-22.790579
940000,0.397437,2.537854,10.589554,-1.225499,7.704676,-22.561571
944000,0.378284,2.602497,10.862494,-2.752217,4.681776,-22.164623
948000,0.328006,2.477999,11.140221,-3.225499,1.536737,-21.004318
952000,0.371101,2.310405,11.489774,-2.294202,-1.577766,-19.340197
956000,0.756568,2.571373,11.413159,-1.759850,-3.669369,-18.668442
960000,0.684742,2.298434,11.839328,-2.202598,-4.386927,-18.424166
964000,0.521936,2.245761,12.492945,0.759233,-7.364026,-17.996685
968000,0.404620,2.169147,12.919112,4.179081,-10.218988,-17.004318
972000,0.493206,2.396596,12.933477,7.934806,-10.631202,-16.439434
976000,0.723049,2.382231,12.866440,10.637096,-7.119751,-16.134090
980000,0.814029,2.092532,12.780249,14.179081,-1.745705,-15.737144
984000,0.778116,2.070984,12.413936,17.171448,2.498570,-14.897449
988000,0.548272,2.032677,12.188881,18.774502,5.307730,-13.737144
992000,0.665588,2.030283,12.028469,20.133280,6.803913,-13.019587
996000,0.823605,2.128445,11.643003,21.064577,7.613074,-12.088289
1000000,1.290475,1.999158,11.207258,21.797401,8.834447,-11.859282
1004000,1.666364,2.059013,10.888829,21.782135,10.727577,-12.897449
1008000,1.582567,2.003947,10.749966,21.430990,12.544371,-14.195160
1012000,1.134852,1.980005,10.666168,20.484425,10.620707,-14.332564
1016000,0.948104,1.924938,10.462662,19.889006,5.506203,-13.996686
1020000,1.149217,1.874660,10.421960,18.896639,-0.112117,-13.721877
1024000,1.264138,1.857901,10.371682,18.560760,-3.989980,-13.782946
1028000,1.115698,1.922544,10.228029,17.476791,-6.509064,-13.935617
1032000,0.792481,1.798046,10.450690,16.423355,-8.722805,-12.943251
1036000,0.603339,1.786075,10.500969,16.255417,-10.478530,-11.416533
1040000,0.632069,1.695095,10.601525,15.965341,-10.432729,-9.844014
1044000,0.706290,1.661576,10.618284,15.782134,-9.226622,-8.347831
1048000,0.768539,1.503559,10.627861,15.705798,-6.753339,-6.729510
1052000,0.902614,1.362301,10.627861,15.308851,-3.257156,-4.637907
1056000,1.209072,1.292869,10.764331,14.530226,-0.478530,-3.553938
1060000,1.393425,1.283292,10.967838,14.118012,2.284829,-2.943251
1064000,1.498770,1.254562,11.106702,14.347019,3.857348,-2.912716
1068000,1.429338,1.074997,11.398794,14.423355,5.093989,-2.118823
1072000,1.522712,0.991199,11.623849,15.049310,6.116890,-1.905083
1076000,1.635240,1.019930,11.798626,16.072210,6.971852,-1.828747
1080000,1.575385,1.017536,12.018892,17.644730,8.254294,-1.737144
1084000,1.592144,0.993594,12.004527,19.980608,8.712310,-1.874548
1088000,1.651999,1.074997,11.841722,22.423357,9.246661,-2.271495
1092000,1.613692,0.986411,11.666945,24.545494,9.613073,-2.729510
1096000,1.575385,0.919373,11.092337,26.209616,9.399332,-3.202793
1100000,1.352724,0.936133,10.345345,26.316486,8.483302,-3.523403
1104000,1.173159,0.938527,9.907207,25.339388,6.880249,-3.859281
1108000,1.055843,0.976834,9.397242,23.583662,4.666509,-3.523403
1112000,1.110910,1.015141,9.112331,21.598928,3.170325,-3.126457
1116000,0.912191,0.933739,8.712500,18.774502,3.032921,-2.805846
1120000,0.624887,1.015141,8.564059,15.476790,2.712310,-1.370732
1124000,0.550666,1.130063,8.678981,12.545493,1.826814,0.430795
1128000,0.763750,1.175553,8.453926,10.179081,0.803913,2.323925
1132000,0.945710,1.003170,8.228871,7.064577,0.498570,3.636902
1136000,0.998382,0.890643,8.259995,3.125646,-0.738072,4.155986
1140000,0.890643,0.986411,8.623915,-0.217866,-3.028148,5.285757
1144000,1.170765,0.931344,9.277532,-1.652980,-6.188453,6.049116
1148000,1.405396,1.058237,10.005369,-2.034660,-8.402194,6.018581
1152000,1.496376,0.995988,10.565612,-0.828552,-9.104485,6.262856
1156000,1.675941,1.007959,11.046846,1.186714,-9.135018,6.568200
1160000,1.915361,0.902614,11.305421,3.553127,-9.211354,6.033849
1164000,2.097321,0.919373,11.384429,5.644730,-9.196087,4.873543
1168000,2.205060,0.866701,11.504139,7.400455,-8.661736,3.194154
1172000,2.252944,0.756568,11.358093,9.079844,-7.837308,1.759039
1176000,2.073379,0.768539,11.106702,9.904272,-6.051049,0.507131
1180000,1.996764,0.785298,10.824186,9.659997,-4.096850,-0.531037
1184000,1.929727,0.763750,10.481815,9.034042,-2.814408,-1.034854
1188000,1.795651,0.744597,10.240001,7.644730,-2.066316,-1.691342
1192000,1.568202,0.715866,10.254366,5.095111,-1.989980,-2.057755
1196000,1.285686,0.761356,10.220847,2.988241,-3.211354,-1.691342
1200000,1.163582,0.893037,10.407595,1.553127,-4.951812,-0.973785
1204000,1.177947,0.811634,10.539276,0.713432,-4.356392,-0.179892
1208000,1.206678,0.782904,10.548853,-0.309469,-2.554866,0.675070
1212000,1.244985,0.785298,10.848128,-1.042293,-0.921278,0.873543
1216000,1.221043,0.907402,11.238382,-1.133896,0.132157,1.392627
1220000,1.355118,0.916979,11.449073,0.011142,1.903150,1.575833
1224000,1.479617,0.847547,11.214440,0.835569,4.284829,1.713238
1228000,1.647211,0.775721,10.943896,1.354653,6.391699,1.438429
1232000,1.675941,0.809240,10.675745,1.308852,7.948951,1.270490
1236000,1.496376,0.869095,10.589554,0.698165,7.216127,1.438429
1240000,1.426944,0.837971,10.541670,0.224882,3.964219,1.682703
1244000,1.503559,0.814029,10.448297,-0.492675,0.788646,2.110184
1248000,1.778892,0.691924,10.532093,-1.469774,-1.470896,2.003314
1252000,1.972822,0.663194,10.860099,-1.820919,-2.524331,1.026215
1256000,2.020706,0.727837,11.326968,-1.149163,-2.844942,0.232322
1260000,1.929727,0.694318,11.643003,0.285951,-3.196087,-0.515770
1264000,1.896208,0.579397,11.540052,1.766867,-3.043415,-1.202793
1268000,1.948880,0.517148,11.425131,2.820302,-2.218988,-2.103556
1272000,1.695095,0.524330,11.415554,3.140913,-1.654102,-3.401266
1276000,1.312023,0.466869,11.683704,3.568394,-2.234255,-4.011953
1280000,0.893037,0.699107,11.829751,4.957707,-3.852576,-3.782945
1284000,0.677559,0.653617,11.887212,7.003509,-4.493797,-3.004319
1288000,0.751779,0.593762,11.573571,8.331753,-2.829675,-2.210426
1292000,0.770933,0.512359,11.355699,8.789768,0.315363,-1.584472
1296000,0.600945,0.483629,11.037270,9.003509,2.284829,-0.897449
1300000,0.411803,0.450110,10.812215,8.163814,3.063455,0.003314
1304000,0.387861,0.545878,10.687716,6.453890,1.964218,0.644536
1308000,0.490811,0.579397,10.709264,5.537859,0.605440,1.484230
1312000,0.481235,0.596156,10.764331,4.774501,0.071089,2.140719
1316000,0.617704,0.641646,10.694899,4.347020,0.620707,2.751406
1320000,0.672771,0.653617,10.591949,3.919539,0.864982,3.743773
1324000,0.806846,0.653617,10.323798,3.553127,1.063455,4.446063
1328000,0.921768,0.617704,10.108319,2.316485,1.124524,4.568200
1332000,1.031901,0.634463,9.981427,0.774501,0.620707,4.491864
1336000,1.055843,0.703895,9.873688,-0.248400,0.132157,4.583467
1340000,1.070208,0.706290,9.773131,-1.546110,-0.982347,4.904078
1344000,1.027112,0.689530,9.753978,-2.767484,-1.516698,5.346826
1348000,0.976834,0.603339,9.753978,-4.141530,-2.478530,6.049116
1352000,0.845153,0.682347,10.208876,-5.027026,-5.073949,6.491864
1356000,1.084573,0.675165,10.855310,-4.721683,-8.081583,6.873543
1360000,1.482011,0.696713,11.312603,-3.042293,-8.188454,6.629269
1364000,1.663970,0.600945,11.401189,-0.401072,-5.440361,5.835375
1368000,1.544260,0.572214,11.298238,1.598928,-1.898377,5.117818
1372000,1.302446,0.545878,11.252748,3.965340,-0.020514,4.766673
1376000,0.948104,0.500388,11.243171,5.568394,0.391699,4.980413
1380000,0.897826,0.488417,11.207258,6.255417,-1.119751,5.133085
1384000,1.039083,0.426168,11.360487,7.125646,-3.501430,4.888811
1388000,1.242591,0.450110,11.580753,7.797401,-5.440361,4.995681
1392000,1.307234,0.320823,11.571177,9.110378,-4.890743,4.720871
1396000,1.091756,0.328006,11.745954,9.904272,-2.768606,4.690337
1400000,0.897826,0.380678,11.846510,11.079844,-1.608301,5.102551
1404000,0.960075,0.311246,11.686098,11.721066,-0.295324,5.606368
1408000,0.931344,0.296881,11.741165,12.270683,1.063455,6.094917
1412000,0.972046,0.253785,11.580753,12.591294,1.567272,6.369727
1416000,1.074997,0.385466,11.247959,11.782134,1.628341,6.873543
1420000,1.072602,0.423774,11.128249,11.598928,1.216127,7.056749
1424000,1.333570,0.418985,10.843340,9.217249,1.475669,7.010948
1428000,1.362301,0.466869,10.953473,7.980608,1.277195,6.476597
1432000,1.371878,0.517148,10.903194,6.820302,0.788646,6.568200
1436000,1.300052,0.481235,10.910378,5.751600,0.941318,6.552933
1440000,1.302446,0.553061,10.931925,5.003509,0.910783,6.430795
1444000,1.343147,0.612916,11.109096,4.759233,1.124524,6.354459
1448000,1.553837,0.598550,11.269507,5.263051,1.322997,5.881177
1452000,1.917756,0.596156,11.281479,6.163814,2.040554,4.629269
1456000,2.023100,0.656011,11.089942,6.927173,3.292463,2.934612
1460000,1.855506,0.622492,11.168951,7.400455,3.903150,1.438429
1464000,1.587356,0.639252,11.286267,8.316485,2.040554,0.507131
1468000,1.532289,0.684742,11.341333,10.148546,-0.677003,0.186520
1472000,1.563414,0.617704,11.372458,11.476790,-2.356392,0.064383
1476000,1.659182,0.622492,11.197681,12.759233,-3.150285,-0.729510
1480000,1.778892,0.557849,11.204864,13.568394,-3.501430,-1.401266
1484000,1.716643,0.579397,11.085154,14.255417,-3.959446,-1.966151
1488000,1.620875,0.524330,11.085154,14.682898,-5.180820,-2.408900
1492000,1.647211,0.416591,10.970232,15.385187,-6.066316,-3.050121
1496000,1.738190,0.332794,10.642226,14.652363,-5.684637,-3.721877
1500000,1.654393,0.375890,10.477027,13.736333,-4.218988,-4.240961
1504000,1.446098,0.371101,10.445902,12.637096,-3.333492,-4.668441
1508000,1.218649,0.440533,10.414778,11.140913,-2.997614,-4.347831
1512000,0.921768,0.471658,10.235212,9.690532,-3.135018,-3.584472
1516000,0.854730,0.466869,10.251971,7.889005,-2.661736,-2.592106
1520000,0.888249,0.438139,10.304645,6.224882,-2.692270,-1.462335
1524000,0.979228,0.433351,10.338163,4.698165,-2.539598,-0.729510
1528000,1.000776,0.464475,10.316615,2.774501,-2.371660,-0.118823
1532000,1.007959,0.457293,10.510546,1.461524,-2.356392,0.522398
1536000,1.000776,0.605733,10.776301,1.003508,-2.829675,0.904078
1540000,1.063026,0.591368,10.975020,1.171447,-2.371660,1.163620
1544000,1.005565,0.617704,11.145009,1.904272,-1.425095,1.728505
1548000,0.976834,0.536301,11.106702,1.995875,-0.615934,2.461329
1552000,1.156399,0.430956,11.051635,2.285951,0.239028,2.812474
1556000,1.221043,0.433351,11.061212,2.255417,1.689409,2.858276
1560000,1.189918,0.462081,11.183316,1.919539,3.093989,2.415528
1564000,1.352724,0.526724,11.343728,1.950073,3.781013,2.354459
1568000,1.467646,0.555455,11.425131,2.423356,5.292463,2.094917
1572000,1.553837,0.483629,11.420342,2.774501,7.536737,1.423162
1576000,1.532289,0.581791,11.662156,3.415722,9.353531,0.751406
1580000,1.259350,0.603339,11.793838,4.453890,8.620707,0.354459
1584000,1.300052,0.660800,11.870452,6.255417,6.834447,0.110184
1588000,1.537078,0.627281,11.757924,7.919539,4.941318,-0.103556
1592000,1.699883,0.603339,11.372458,8.866104,4.132157,-0.973785
1596000,1.747767,0.646434,11.099519,9.171448,3.292463,-1.935617
1600000,1.635240,0.653617,11.032481,8.942440,1.231394,-3.019587
1604000,1.431733,0.802058,10.958261,8.774501,-1.669369,-3.523403
1608000,1.228225,0.763750,11.123461,8.591294,-4.142652,-3.691342
1612000,1.086968,0.778116,11.025299,8.942440,-4.906011,-3.324930
1616000,1.130063,0.770933,10.927136,9.110378,-3.745705,-2.729510
1620000,1.163582,0.696713,10.723629,9.186714,-1.333492,-2.485235
1624000,1.003170,0.636858,10.496181,8.408089,1.200860,-2.302029
1628000,0.821211,0.660800,10.168175,7.476791,1.811547,-1.874548
1632000,0.677559,0.708684,10.110714,5.858470,1.124524,-1.111190
1636000,0.565032,0.725443,10.022128,4.484425,-0.844942,-0.821113
1640000,0.699107,0.701501,10.326192,3.461524,-2.799140,0.247589
1644000,0.837971,0.792481,10.359711,3.125646,-3.944179,1.178887
1648000,1.283292,0.656011,10.393229,2.621829,-3.180820,0.919345
1652000,1.393425,0.567426,10.354922,2.087478,-0.554866,0.155986
1656000,1.134852,0.653617,10.395624,1.293585,0.849715,-0.225693
1660000,0.933739,0.591368,10.450690,0.911905,0.284829,-0.179892
1664000,1.089362,0.620098,10.579977,1.064577,-1.028148,0.186520
1668000,1.321599,0.632069,10.546458,1.049310,-1.409827,-0.210426
1672000,1.398214,0.572214,10.635044,0.850837,-0.234255,-0.851648
1676000,1.197101,0.612916,10.680533,0.713432,-0.295324,-0.927984
1680000,1.089362,0.632069,10.843340,0.484424,-1.638835,-0.607373
1684000,1.070208,0.636858,10.907983,0.972974,-2.646469,-0.454701
1688000,1.091756,0.608127,10.986992,1.034043,-2.829675,-0.347831
1692000,1.309628,0.581791,10.998962,1.232516,-2.051049,-0.271495
1696000,1.273715,0.634463,11.070788,1.232516,-1.028148,-0.149358
1700000,1.244985,0.620098,11.008539,1.232516,0.208493,-0.363098
1704000,1.233014,0.603339,11.171345,1.278317,0.635974,-0.317297
1708000,1.187524,0.701501,11.197681,1.553127,-0.005247,0.018581
1712000,1.283292,0.787692,11.209652,1.980608,-0.631201,-0.073022
1716000,1.467646,0.821211,11.267113,2.469157,-0.738072,0.064383
1720000,1.503559,0.814029,11.322180,2.835569,-0.524331,-0.668442
1724000,1.568202,0.873884,11.209652,3.369921,0.208493,-1.324930
1728000,1.520318,0.902614,11.216835,4.056943,0.452768,-1.752411
1732000,1.405396,0.986411,11.267113,4.743967,-0.157919,-2.271495
1736000,1.139640,0.950498,11.286267,5.766867,-1.409827,-2.271495
1740000,0.976834,1.225831,11.195287,6.392821,-3.822041,-1.309663
1744000,1.359907,0.943315,11.077971,6.957707,-4.707537,-1.111190
1748000,1.544260,0.952892,10.785878,7.049310,-3.547232,-1.889816
1752000,1.453280,0.952892,10.541670,5.934806,-1.959446,-2.485235
1756000,1.134852,0.955287,10.484209,4.911905,-1.699904,-2.164625
1760000,0.957681,1.029507,10.512939,4.087478,-2.600667,-1.492869
1764000,1.017536,0.945710,10.704475,3.339386,-3.745705,-0.622640
1768000,1.357512,0.969652,10.769119,3.018775,-3.364026,-0.744777
1772000,1.568202,0.905008,10.821792,2.514959,-1.928911,-1.248594
1776000,1.640028,0.902614,10.699687,1.934806,-0.921278,-1.706609
1780000,1.364695,0.809240,10.627861,1.278317,-0.997614,-2.011953
1784000,1.151611,0.845153,10.769119,0.835569,-2.509064,-2.118823
1788000,1.098939,0.924162,10.951078,0.301218,-4.463263,-1.828747
1792000,1.180341,0.792481,11.066000,0.484424,-5.226621,-1.538671
1796000,1.314417,0.806846,11.039664,0.728699,-5.135018,-1.492869
1800000,1.367089,0.802058,11.125855,0.835569,-4.356392,-1.508136
1804000,1.383849,0.773327,11.183316,1.095111,-3.333492,-1.447067
1808000,1.300052,0.778116,11.374852,1.476791,-3.470896,-1.828747
1812000,1.139640,0.826000,11.405977,2.133279,-4.096850,-1.676075
1816000,1.259350,0.778116,11.511322,2.560760,-3.989980,-1.874548
1820000,1.247379,0.763750,11.614272,3.950073,-3.104484,-1.905083
1824000,1.230620,0.718261,11.760319,5.156180,-1.715171,-1.981419
1828000,1.175553,0.737414,11.937490,6.850837,-0.692270,-2.378365
1832000,0.998382,0.778116,12.011710,9.201982,-0.936545,-2.057755
1836000,1.012747,0.818817,11.805809,10.988241,-0.234255,-1.416533
1840000,1.058237,0.701501,11.408371,11.675264,0.147424,-1.248594
1844000,1.283292,0.605733,11.243171,11.751600,1.078722,-1.447067
1848000,1.510741,0.660800,10.879252,11.446257,1.429867,-2.088289
1852000,1.369483,0.679953,10.891224,10.637096,1.506203,-2.927984
1856000,0.995988,0.711078,10.706870,9.736333,1.170325,-3.095922
1860000,0.706290,0.742203,10.752359,8.988241,-0.325858,-2.546304
1864000,0.581791,0.751779,10.769119,8.453890,-1.867843,-1.294396
1868000,0.644040,0.816423,10.735600,7.934806,-1.608301,-0.011953
1872000,0.785298,0.806846,10.644621,7.369921,-0.218988,0.797207
1876000,0.909797,0.818817,10.556035,6.789768,1.429867,1.392627
1880000,1.051055,0.871489,10.517728,5.690531,2.727577,1.697971
1884000,1.151611,0.830788,10.352529,5.049310,2.971852,1.804841
1888000,1.151611,0.933739,10.232818,3.782134,2.330631,1.407894
1892000,1.154005,0.995988,10.043676,2.499691,1.032921,1.484230
1896000,1.055843,0.905008,10.093954,1.339386,0.177959,1.407894
1900000,1.015141,0.861913,10.139444,0.163814,-0.997614,1.896444
1904000,1.216254,0.797269,10.251971,-0.904888,-2.234255,2.079650
1908000,1.391031,0.718261,10.479421,-1.332370,-2.982346,1.652169
1912000,1.414973,0.797269,10.742783,-1.897255,-3.913644,1.316291
1916000,1.328782,0.782904,10.915166,-1.820919,-5.165553,1.209421
1920000,1.312023,0.802058,10.953473,-1.393438,-6.768606,0.736139
1924000,1.362301,0.766145,11.015722,-0.950690,-6.722805,0.384994
1928000,1.149217,0.689530,11.135432,-0.248400,-6.081583,0.140719
1932000,1.039083,0.684742,11.396400,0.896638,-5.364026,-0.011953
1936000,1.058237,0.763750,11.449073,2.331753,-4.218988,0.461329
1940000,1.400608,0.699107,11.276690,3.782134,-2.509064,-0.011953
1944000,1.453280,0.670376,11.147403,4.377554,0.116890,-0.668442
1948000,1.149217,0.696713,10.924743,4.408089,1.368798,-1.309663
1952000,0.919373,0.713472,10.788273,4.209615,0.712310,-1.172258
1956000,0.861913,0.746991,10.733206,3.858470,-0.814408,-0.897449
1960000,0.780510,0.770933,10.721235,3.522592,-1.867843,-0.469968
1964000,1.029507,0.782904,10.934319,3.751600,-1.760972,-0.149358
1968000,1.264138,0.754174,10.953473,3.995875,-0.402194,-0.469968
1972000,1.223437,0.727837,11.063606,4.438623,2.132157,-0.882182
1976000,1.055843,0.794875,11.097125,4.576027,4.483303,-0.775312
1980000,0.818817,0.871489,10.862494,5.079844,4.376432,-0.363098
1984000,0.907402,0.861913,10.843340,5.507325,4.055821,-0.057755
1988000,0.981623,0.792481,10.536881,5.186715,4.315363,0.110184
1992000,1.065420,0.780510,10.165780,3.980608,3.765745,0.140719
1996000,1.182736,0.763750,10.132261,2.209615,2.345898,-0.027220
