time_us,ax,ay,az,gx,gy,gz
0,0.840365,0.277727,10.900801,2.499691,-3.470896,1.255223
4000,0.854730,0.368707,10.869676,2.453890,-2.615934,1.087284
8000,0.809240,0.349553,10.936713,2.301218,-2.493797,1.285757
12000,0.974440,0.356736,10.874464,2.652363,-2.554866,1.438429
16000,1.022324,0.330400,10.797850,2.530226,-2.646469,1.423162
20000,1.113304,0.280122,10.723629,2.377554,-2.493797,1.224688
24000,1.027112,0.284910,10.685322,1.843203,-2.539598,1.209421
28000,1.051055,0.387861,10.639832,1.461524,-2.921278,1.270490
32000,0.972046,0.395043,10.740389,1.232516,-4.203721,1.377360
36000,0.974440,0.356736,10.699687,1.232516,-4.860209,1.606368
40000,1.115698,0.414197,10.864887,1.034043,-4.814407,1.835375
44000,1.230620,0.318429,10.857705,1.186714,-4.127385,1.178887
48000,1.259350,0.342371,10.749966,0.911905,-2.921278,0.781940
52000,1.247379,0.363919,10.807426,0.743966,-2.020514,0.278123
56000,1.316811,0.361524,10.697293,0.347020,-1.257156,-0.134090
60000,1.209072,0.373495,10.814610,0.133279,-0.677003,-0.714243
64000,1.022324,0.418985,10.970232,-0.141530,-0.890743,-1.218060
68000,1.007959,0.371101,11.077971,0.011142,-0.768606,-1.126457
72000,1.079785,0.330400,11.240777,0.469157,-0.402194,-1.004319
76000,1.110910,0.306458,11.219229,1.156180,0.483302,-1.065388
80000,1.048660,0.282516,11.180922,1.247783,1.552005,-1.324930
84000,0.842759,0.244209,11.039664,1.110379,2.208493,-1.324930
88000,0.679953,0.260968,11.020511,1.369921,2.101623,-0.989052
92000,0.677559,0.308852,11.058818,1.125646,1.170325,-0.622640
96000,0.732626,0.294487,11.070788,1.140913,0.803913,-0.164625
100000,0.861913,0.313640,11.082760,1.125646,0.697043,0.064383
104000,0.885855,0.313640,11.221623,1.553127,0.422234,-0.042487
108000,0.909797,0.361524,11.300632,1.873737,-0.249522,0.171253
112000,0.794875,0.349553,11.346122,2.408089,-1.180820,0.491864
116000,1.015141,0.347159,11.492168,3.278317,-2.127385,0.537665
120000,1.168370,0.328006,11.508927,4.148547,-1.898377,-0.103556
124000,1.165976,0.332794,11.451467,5.507325,-0.386927,-0.531037
128000,1.084573,0.363919,11.365275,6.087478,1.200860,-0.714243
132000,0.888249,0.301669,11.362882,6.621829,2.132157,-0.698976
136000,0.890643,0.349553,11.231200,7.278317,1.765745,0.033849
140000,0.938527,0.311246,11.070788,6.835569,1.368798,0.155986
144000,1.043872,0.265756,10.898406,6.652363,1.399333,0.094917
148000,1.096544,0.220267,10.869676,5.843203,0.926050,-0.225693
152000,1.089362,0.270545,10.905589,5.049310,0.132157,-0.286762
156000,1.096544,0.241814,10.814610,4.942440,-0.829675,-0.149358
160000,1.065420,0.335188,10.939108,4.774501,-1.287690,-0.103556
164000,1.130063,0.277727,10.790668,4.499691,-1.379293,-0.057755
168000,1.113304,0.260968,10.690110,4.331753,-1.226621,-0.195159
172000,0.995988,0.292093,10.656591,3.675264,-1.730438,0.064383
176000,1.039083,0.330400,10.697293,3.171447,-2.081583,0.217055
180000,1.053449,0.442927,10.697293,2.560760,-2.753339,0.476597
184000,1.130063,0.335188,10.752359,1.934806,-3.104484,0.400261
188000,1.110910,0.378284,10.721235,1.156180,-2.722805,0.186520
192000,1.163582,0.325611,10.872070,1.385188,-1.959446,0.079650
196000,1.096544,0.323217,10.876859,1.079844,-2.356392,0.018581
200000,1.022324,0.335188,10.953473,1.095111,-2.967079,0.308658
204000,1.067814,0.330400,11.097125,1.369921,-3.837308,0.094917
208000,1.120486,0.308852,10.912771,1.583661,-4.218988,0.003314
212000,1.168370,0.268151,10.884041,1.782134,-4.570133,-0.378365
216000,1.197101,0.325611,10.955867,1.644730,-4.707537,-0.515770
220000,1.149217,0.306458,10.984597,2.056943,-5.012881,-0.714243
224000,1.074997,0.392649,11.049241,2.377554,-5.165553,-0.729510
228000,1.108515,0.373495,10.953473,2.621829,-5.455629,-0.225693
232000,1.194707,0.371101,11.001357,2.896638,-4.997613,-0.256228
236000,1.221043,0.383072,11.044453,2.972974,-4.386927,-0.622640
240000,1.230620,0.351948,10.869676,2.957707,-3.608301,-0.836380
244000,1.180341,0.318429,10.843340,2.820302,-2.890743,-0.927984
248000,1.146823,0.363919,10.888829,2.682898,-2.203721,-0.973785
252000,1.043872,0.368707,10.910378,2.591295,-1.989980,-0.943251
256000,1.211466,0.335188,11.018116,2.560760,-1.058682,-0.668442
260000,1.197101,0.301669,10.958261,2.576027,-0.127385,-0.851648
264000,1.180341,0.263362,11.003751,2.408089,0.452768,-0.805846
268000,1.065420,0.265756,10.903194,2.637096,0.177959,-0.363098
272000,1.048660,0.301669,10.852917,2.224883,-0.707537,-0.424167
276000,1.086968,0.260968,10.934319,1.934806,-1.715171,-0.363098
280000,1.055843,0.280122,10.934319,1.843203,-2.600667,-0.073022
284000,1.118092,0.287304,11.020511,1.782134,-3.257156,0.003314
288000,1.079785,0.263362,11.113884,2.133279,-3.913644,0.247589
292000,1.132457,0.294487,11.214440,2.789768,-3.608301,0.125452
296000,1.216254,0.162806,11.168951,3.354653,-2.310591,0.064383
300000,1.187524,0.186748,11.097125,3.659997,-1.302957,0.049116
304000,1.046266,0.205901,11.051635,3.598928,-0.249522,0.094917
308000,1.084573,0.186748,10.936713,3.537859,-0.356392,0.232322
312000,1.300052,0.201113,10.927136,3.461524,-0.600667,0.293391
316000,1.400608,0.112527,10.848128,3.308852,-0.386927,0.003314
320000,1.455675,0.028730,10.809821,2.621829,-0.738072,-0.744777
324000,1.379060,0.093374,10.807426,2.118012,-1.150285,-1.385999
328000,1.216254,0.081403,10.984597,1.797401,-2.264789,-1.431800
332000,1.139640,0.110133,11.224017,2.056943,-3.547232,-1.431800
336000,1.139640,0.047884,11.231200,2.850837,-4.096850,-1.553938
340000,1.230620,0.021548,11.133038,3.430989,-3.165553,-1.874548
344000,1.168370,0.055067,11.113884,3.629463,-1.638835,-2.256228
348000,1.060631,0.011971,11.135432,4.438623,-0.615934,-2.378365
352000,0.926556,0.033519,10.979809,4.591295,-0.386927,-2.149358
356000,0.926556,0.026336,10.838552,4.545493,-0.585400,-1.660808
360000,0.928950,-0.004788,10.773908,4.026409,-1.593034,-1.553938
364000,0.924162,0.007183,10.817003,3.797401,-1.944179,-1.309663
368000,1.022324,-0.026336,10.910378,3.430989,-2.295324,-1.370732
372000,1.065420,-0.040701,10.910378,3.140913,-2.600667,-1.172258
376000,1.055843,-0.021548,10.984597,2.988241,-2.417461,-1.248594
380000,1.070208,-0.067038,11.106702,3.247783,-2.264789,-1.324930
384000,1.132457,-0.095768,11.192893,3.598928,-1.974713,-1.294396
388000,1.127669,-0.110133,11.022904,4.041677,-0.722805,-1.492869
392000,1.072602,-0.110133,10.972627,4.392821,0.116890,-1.492869
396000,0.955287,-0.126893,10.790668,4.270684,0.559638,-1.782945
400000,0.873884,-0.198719,10.632649,4.148547,0.941318,-1.905083
404000,0.828394,-0.241814,10.493786,3.430989,1.124524,-1.844014
408000,0.617704,-0.220267,10.400413,2.453890,-0.066316,-1.355464
412000,0.517148,-0.253785,10.429143,1.812669,-1.974713,-0.454701
416000,0.581791,-0.304064,10.477027,1.186714,-3.272423,0.323925
420000,0.586579,-0.383072,10.417171,0.576027,-4.493797,0.980413
424000,0.639252,-0.474052,10.527305,-0.065194,-5.028148,1.377360
428000,0.763750,-0.512359,10.568007,-0.614812,-5.287690,1.621635
432000,0.952892,-0.593762,10.467450,-1.256034,-4.890743,1.865910
436000,1.060631,-0.667982,10.635044,-1.683514,-4.203721,1.331558
440000,0.933739,-0.703895,11.046846,-2.065194,-5.028148,1.209421
444000,0.988805,-0.605733,11.604695,-0.370538,-6.081583,0.843009
448000,1.414973,-0.656011,11.765107,2.041676,-6.081583,0.919345
452000,1.747767,-0.770933,11.540052,3.995875,-4.249522,-0.240961
456000,1.999158,-0.790087,11.353305,4.942440,-1.593034,-1.782945
460000,1.843535,-0.869095,11.192893,5.369921,0.010020,-3.599739
464000,1.417367,-0.857124,11.137826,5.629463,-0.509064,-4.851647
468000,1.060631,-0.928950,11.070788,5.278317,-2.570133,-5.034853
472000,0.962469,-1.000776,11.135432,5.537859,-3.608301,-5.095922
476000,0.790087,-0.979228,11.226412,5.079844,-2.753339,-4.851647
480000,0.569820,-0.976834,11.252748,4.972974,-2.051049,-3.996686
484000,0.359130,-0.969652,11.224017,4.621829,-2.188453,-2.698976
488000,0.339977,-1.003170,11.233594,4.301219,-3.028148,-1.279129
492000,0.555455,-0.960075,11.224017,3.736333,-3.547232,-0.286762
496000,0.828394,-0.969652,11.094730,3.400455,-3.745705,0.232322
500000,0.881066,-1.067814,11.027693,2.545493,-2.967079,0.415528
504000,0.852336,-1.103727,11.085154,1.919539,-3.119751,0.720871
508000,0.869095,-1.137246,11.286267,1.812669,-4.020514,1.316291
512000,0.861913,-1.110910,11.468226,1.782134,-5.165553,1.682703
516000,1.017536,-1.206678,11.614272,1.995875,-5.455629,2.003314
520000,1.187524,-1.316811,11.580753,1.934806,-5.516697,2.308658
524000,1.206678,-1.412579,11.633426,2.133279,-5.608301,2.400261
528000,1.307234,-1.472434,11.858481,2.484425,-6.310591,2.033848
532000,1.328782,-1.482011,12.117055,2.805035,-7.577766,1.804841
536000,1.414973,-1.582567,12.050017,4.072211,-8.906011,1.392627
540000,1.376666,-1.668759,12.176909,5.232516,-10.234255,1.041482
544000,1.434127,-1.695095,12.303802,6.530226,-10.447996,0.736139
548000,1.496376,-1.721431,12.521675,8.484425,-10.173186,0.430795
552000,1.587356,-1.798046,12.337321,10.453890,-8.600668,-0.179892
556000,1.587356,-1.821988,12.210428,11.873737,-6.814407,-1.050121
560000,1.505953,-1.843535,12.095507,13.843203,-4.936545,-1.553938
564000,1.352724,-1.881842,11.796232,15.186714,-4.020514,-1.676075
568000,1.364695,-1.948880,11.470620,15.446257,-4.493797,-1.676075
572000,1.379060,-2.147599,11.178528,15.369921,-5.440361,-2.011953
576000,1.182736,-2.166753,10.951078,14.453890,-7.547232,-2.500503
580000,0.950498,-2.231396,10.915166,13.705798,-10.615934,-2.286762
584000,0.878672,-2.310405,10.869676,12.453890,-13.654102,-2.042487
588000,0.699107,-2.348712,10.747571,11.721066,-15.516698,-1.477602
592000,0.629675,-2.348712,10.670957,10.301218,-17.608301,-1.050121
596000,0.617704,-2.396596,10.740389,9.308852,-19.333492,-0.592106
600000,0.531513,-2.303222,10.663774,8.148546,-21.318224,-0.225693
604000,0.478840,-2.221819,10.649409,7.278317,-22.478531,-0.271495
608000,0.234632,-2.185906,10.558430,6.194348,-22.661736,0.293391
612000,0.000000,-2.159570,10.386047,4.972974,-23.318224,1.331558
616000,-0.110133,-2.037466,10.455479,3.950073,-23.883110,2.537665
620000,-0.114922,-1.968034,10.388441,2.881371,-24.264790,4.354459
624000,-0.117316,-1.934515,10.362105,1.904272,-23.394560,5.652169
628000,-0.009577,-1.872266,10.235212,0.789768,-22.585400,7.759039
632000,-0.028730,-1.939303,10.414778,-1.286568,-21.837309,9.499497
636000,0.110133,-1.929727,11.183316,-2.385804,-22.783875,11.194154
640000,0.562637,-1.845930,11.789049,-1.668247,-24.096851,12.446062
644000,1.127669,-1.721431,12.217611,0.163814,-24.310591,12.858275
648000,1.520318,-1.702277,12.545617,3.125646,-22.783875,12.461329
652000,1.824382,-1.604115,12.792220,7.003509,-21.654102,12.125451
656000,2.291251,-1.522712,12.684481,11.034042,-20.295324,11.377359
660000,2.545036,-1.549049,12.569559,14.667630,-18.127384,9.606367
664000,2.580950,-1.398214,12.126632,17.247784,-16.600668,7.759039
668000,2.437297,-1.319205,11.609484,19.064577,-16.051048,6.491864
672000,2.549825,-1.266533,11.046846,19.797401,-15.577766,5.560566
676000,2.698265,-1.182736,10.481815,19.644730,-14.906011,4.720871
680000,2.636016,-1.115698,10.077195,17.568394,-14.814408,3.957513
684000,2.674323,-1.086968,9.713276,15.369921,-15.379293,2.797207
688000,2.616863,-0.960075,9.600749,12.255417,-16.234255,1.697971
692000,2.513912,-0.902614,9.619903,9.843203,-16.417461,0.522398
696000,2.461239,-0.849942,9.651027,8.118012,-16.386927,-0.515770
700000,2.372654,-0.763750,10.012551,7.079844,-15.883110,-1.340197
704000,2.245761,-0.660800,10.072407,6.789768,-14.677003,-2.424167
708000,2.068590,-0.610521,10.216059,6.392821,-13.852576,-3.294396
712000,1.810017,-0.548272,10.263943,6.270684,-13.745706,-4.225693
716000,1.635240,-0.464475,10.395624,6.682898,-13.776240,-4.882182
720000,1.505953,-0.517148,10.182540,6.377554,-13.043416,-5.447067
724000,1.312023,-0.548272,9.979033,5.934806,-11.699904,-6.118823
728000,0.952892,-0.464475,9.876082,4.835569,-10.906011,-6.164625
732000,0.411803,-0.435745,9.842564,3.934806,-11.944179,-5.324930
736000,0.016759,-0.414197,9.679757,2.240149,-13.119752,-3.615006
740000,-0.100556,-0.416591,9.967062,0.362287,-14.753339,-1.966151
744000,-0.093374,-0.356736,10.649409,0.056943,-16.432728,-0.561571
748000,0.404620,-0.246603,11.168951,1.064577,-14.936545,0.125452
752000,0.790087,-0.268151,11.360487,2.743967,-10.280057,-0.057755
756000,0.969652,-0.217872,11.492168,5.110379,-4.325858,-0.424167
760000,1.233014,-0.035913,11.396400,7.400455,1.093989,-0.790579
764000,1.438915,0.107739,11.111490,8.942440,5.277195,-1.202793
768000,1.786075,0.196325,10.869676,10.148546,7.277195,-2.622640
772000,2.035071,0.282516,10.414778,10.392821,7.445135,-3.981419
776000,2.276886,0.399832,10.058042,9.889005,5.948951,-5.019587
780000,2.442086,0.507571,9.751583,8.530226,3.185592,-6.469968
784000,2.612074,0.588974,9.397242,6.789768,-0.356392,-7.721877
788000,2.844312,0.644040,9.193734,3.675264,-5.135018,-9.477602
792000,2.896984,0.713472,9.030929,0.850837,-10.707538,-11.538671
796000,2.636016,0.742203,9.162610,-2.828552,-16.661736,-13.645541
800000,2.408567,0.742203,9.303867,-5.271301,-21.822042,-14.927984
804000,2.200271,0.842759,9.526528,-8.034659,-24.615934,-16.118824
808000,1.960851,0.859518,9.926360,-10.019393,-25.364027,-16.866915
812000,1.874660,1.010353,10.603919,-10.462141,-25.028149,-17.370731
816000,2.001553,1.022324,10.771513,-9.988858,-21.745707,-17.950884
820000,1.819593,1.024718,10.678140,-9.866721,-17.241888,-18.363098
824000,1.584962,0.945710,10.539276,-10.309469,-12.142653,-18.729509
828000,1.410185,1.003170,10.280702,-11.194965,-7.944179,-18.729509
832000,1.546654,0.950498,10.170568,-12.767484,-4.890743,-19.477602
836000,1.484405,0.945710,10.125079,-14.446874,-3.165553,-19.920349
840000,1.450886,0.995988,10.098742,-16.034658,-2.264789,-20.805845
844000,1.271321,1.058237,10.024523,-17.332369,-1.135018,-21.111189
848000,0.993594,1.132457,10.240001,-18.507942,-0.997614,-21.385998
852000,0.969652,1.110910,10.290278,-19.240767,-0.600667,-20.989052
856000,1.048660,1.017536,9.895236,-20.507942,0.697043,-20.744778
860000,1.024718,0.900220,9.737218,-22.736948,1.353531,-21.095922
864000,0.837971,0.972046,10.036493,-25.607178,0.300096,-21.523403
868000,0.476446,1.077391,10.644621,-27.378170,-1.913644,-21.462334
872000,0.490811,1.268927,11.573571,-27.179697,-5.638835,-20.973785
876000,0.840365,1.424550,12.291832,-24.569010,-7.165553,-20.149357
880000,1.843535,1.405396,12.461820,-20.798018,-5.089217,-20.714243
884000,2.650381,1.410185,12.310986,-16.782751,0.620707,-22.866915
888000,2.731784,1.345541,11.865664,-14.614812,5.414600,-25.553938
892000,2.626439,1.345541,11.341333,-14.141530,6.162692,-28.134090
896000,2.394202,1.505953,11.298238,-14.248401,1.307730,-30.592106
900000,2.334347,1.678335,11.389217,-13.683515,-4.768606,-32.698975
904000,2.286463,1.831564,11.233594,-13.240767,-8.280057,-34.378365
908000,2.264915,1.982399,11.034876,-12.782752,-9.028149,-35.447067
912000,2.331953,2.042254,10.505757,-12.553744,-6.860209,-36.317295
916000,2.181118,2.023100,9.933543,-14.156796,-4.020514,-36.760044
920000,1.728614,2.087744,9.382876,-17.088095,-3.226621,-37.111191
924000,1.213860,2.082955,9.026140,-20.935423,-5.043415,-36.317295
928000,0.912191,2.092532,9.323022,-24.614811,-9.012881,-35.218060
932000,1.017536,2.173935,9.947908,-26.675880,-11.669370,-33.874546
936000,1.419762,2.094927,10.453085,-27.072826,-10.921278,-32.744778
940000,1.814805,2.061408,10.714052,-26.935423,-6.493797,-32.332565
944000,2.051831,2.006341,10.994174,-26.553743,-1.486163,-32.393631
948000,2.075773,1.912967,11.123461,-25.866720,1.124524,-32.943249
952000,2.008735,1.903390,11.382035,-25.408705,1.200860,-34.073021
956000,1.812411,1.936909,11.389217,-24.263666,0.437501,-35.202793
960000,1.561020,1.879448,11.444284,-23.714048,-0.356392,-35.416534
964000,1.357512,1.881842,11.257536,-23.042292,-0.447995,-35.233326
968000,1.374272,1.807622,10.955867,-22.798018,1.124524,-34.454700
972000,1.273715,1.848324,10.644621,-24.019392,2.574905,-34.149357
976000,1.156399,1.814805,10.886436,-26.095728,2.071089,-33.920349
980000,1.149217,2.006341,11.489774,-27.042292,-0.280056,-33.798210
984000,1.201889,2.059013,12.179304,-26.187330,-1.974713,-33.676075
988000,1.419762,1.987187,12.794614,-23.683514,-0.997614,-33.691341
992000,1.484405,2.032677,13.242330,-20.126263,0.071089,-34.042488
996000,1.754950,2.106898,13.761871,-15.103362,1.719944,-34.485233
1000000,1.762132,1.968034,13.864822,-9.317102,3.765745,-35.294395
1004000,1.537078,2.133234,13.543999,-4.523210,4.880249,-36.103554
1008000,1.132457,2.164358,13.153744,-1.317102,4.880249,-35.996685
1012000,1.015141,2.159570,12.710816,1.186714,4.681776,-36.088287
1016000,0.883460,2.252944,12.155362,2.621829,4.116890,-35.218060
1020000,0.948104,2.384625,11.645397,2.056943,4.284829,-34.683708
1024000,0.964863,2.363077,11.444284,1.354653,3.475669,-34.210426
1028000,0.746991,2.355895,11.250354,0.667630,2.437501,-33.263863
1032000,0.241814,2.523489,11.051635,0.438623,1.078722,-31.844013
1036000,0.045490,2.308010,10.716447,-0.233133,-0.707537,-29.034853
1040000,0.007183,2.494758,10.177752,-0.828552,-1.333492,-26.332563
1044000,0.033519,2.444480,9.742006,-1.897255,-1.593034,-23.706610
1048000,-0.086191,2.449268,9.579201,-4.538477,-1.089217,-21.294395
1052000,-0.263362,2.403779,9.495404,-6.340003,-2.890743,-18.179892
1056000,-0.335188,2.458845,9.378088,-8.950690,-5.119751,-14.546305
1060000,0.033519,2.334347,9.595961,-12.049927,-6.997613,-11.645541
1064000,0.560243,2.226608,9.708488,-14.645347,-8.051049,-9.584473
1068000,1.338359,2.267309,10.053253,-16.431606,-8.325858,-8.637908
1072000,1.618480,2.233790,10.793061,-16.538475,-8.249522,-9.202793
1076000,1.733402,2.173935,11.259931,-15.530843,-7.562499,-9.462335
1080000,1.951274,2.128445,11.556811,-13.378171,-6.860209,-9.981419
1084000,2.149993,2.133234,12.009315,-10.309469,-3.776240,-10.668442
1088000,2.475605,2.011129,12.085930,-7.637713,0.345898,-12.164625
1092000,2.425326,1.903390,11.908759,-4.996491,4.223761,-13.233328
1096000,2.221819,1.924938,11.899182,-3.698782,5.597806,-13.981419
1100000,2.236184,1.874660,11.947066,-2.614812,4.071089,-14.256228
1104000,2.264915,1.766921,11.942278,-1.851454,1.903150,-14.714244
1108000,2.123657,1.714248,12.069171,-0.691148,-1.241889,-15.126457
1112000,1.860295,1.719037,12.133814,0.713432,-4.417461,-14.912717
1116000,1.862689,1.663970,12.253524,2.850837,-8.249522,-14.103557
1120000,2.334347,1.575385,12.011710,5.385188,-9.806774,-13.889816
1124000,2.698265,1.534683,11.511322,6.759233,-8.661736,-14.927984
1128000,2.566584,1.446098,11.022904,6.728699,-7.318224,-16.378365
1132000,2.068590,1.381454,10.606314,5.889005,-6.875476,-16.805845
1136000,1.584962,1.410185,10.393229,4.316485,-7.791507,-16.378365
1140000,1.290475,1.410185,10.273520,1.980608,-7.470896,-15.172258
1144000,1.211466,1.364695,10.187328,0.331753,-6.188453,-13.569205
1148000,1.335965,1.331176,10.220847,-0.859087,-3.150285,-11.966152
1152000,1.383849,1.393425,10.002975,-1.836186,0.956585,-10.469969
1156000,1.429338,1.388637,9.892841,-2.843820,4.635974,-9.156992
1160000,1.189918,1.302446,9.660604,-4.294202,6.376432,-7.767678
1164000,1.158794,1.280898,9.576807,-5.836186,6.193226,-6.439434
1168000,1.374272,1.247379,9.493010,-7.301835,5.719944,-5.156991
1172000,1.623269,1.091756,9.763555,-8.523210,5.506203,-4.622640
1176000,1.728614,1.094150,10.046070,-8.874354,5.246661,-4.408900
1180000,1.632846,1.144428,10.311827,-9.103362,4.391699,-3.630274
1184000,1.666364,0.957681,10.723629,-9.011759,2.758112,-3.141724
1188000,1.965640,0.943315,11.190498,-8.187331,0.620707,-3.156991
1192000,2.171541,0.919373,11.607090,-6.355270,-1.486163,-3.416533
1196000,2.430115,0.871489,11.666945,-3.866720,-2.615934,-4.210426
1200000,2.489970,0.826000,11.585542,-1.759850,-2.783873,-5.462335
1204000,2.157176,0.761356,11.590330,0.453890,-2.570133,-6.317297
1208000,1.628057,0.804452,11.738770,2.743967,-3.409827,-6.332563
1212000,1.537078,0.895431,11.530476,5.049310,-5.623568,-5.080655
1216000,1.802834,0.739808,11.188105,6.713432,-5.852575,-4.103556
1220000,1.994370,0.648829,10.685322,6.743966,-4.341125,-4.149358
1224000,1.912967,0.560243,10.189722,5.049310,-2.035782,-4.805846
1228000,1.508347,0.562637,10.251971,2.881371,-2.386927,-4.256228
1232000,1.343147,0.622492,10.443508,1.064577,-5.715171,-3.492869
1236000,1.323994,0.574608,10.821792,-0.401072,-8.203721,-2.943251
1240000,1.288081,0.603339,11.137826,-0.721682,-8.890744,-2.317297
1244000,1.089362,0.591368,11.360487,-0.202598,-8.264790,-1.187526
1248000,1.036689,0.569820,11.444284,0.484424,-6.218987,0.400261
1252000,0.921768,0.581791,11.480197,1.430989,-4.096850,2.186520
1256000,0.909797,0.670376,11.439496,2.224883,-2.020514,3.697971
1260000,1.170765,0.689530,11.235989,2.591295,-0.463263,5.010948
1264000,1.522712,0.653617,10.977415,2.209615,1.170325,5.621635
1268000,1.687912,0.608127,10.656591,1.446256,3.277195,5.743773
1272000,1.659182,0.572214,10.584765,0.881371,3.842081,5.697971
1276000,1.510741,0.543484,10.477027,0.316485,2.513837,5.850643
1280000,1.328782,0.588974,10.438720,-0.263667,0.116890,6.400261
1284000,1.252167,0.593762,10.503363,-0.355270,-3.364026,7.484231
1288000,1.407791,0.483629,10.594342,-0.370538,-5.883110,8.140718
1292000,1.726219,0.438139,10.778696,0.240150,-7.302957,8.079650
1296000,1.886631,0.404620,10.955867,1.476791,-8.035782,7.636902
1300000,1.896208,0.464475,11.142614,2.591295,-8.096850,7.484231
1304000,1.812411,0.356736,11.264719,3.598928,-8.585401,7.423162
1308000,1.905785,0.371101,11.262324,4.331753,-9.196087,7.194154
1312000,2.087744,0.318429,11.305421,5.980608,-10.142653,6.644536
1316000,2.437297,0.320823,11.233594,6.148546,-10.066317,5.148353
1320000,2.243367,0.143652,11.482592,7.049310,-9.425095,3.957513
1324000,2.032677,0.251391,11.470620,8.041677,-8.783874,3.010948
1328000,1.934515,0.289698,11.530476,8.927173,-7.730438,2.751406
1332000,1.917756,0.289698,11.580753,9.827936,-6.509064,2.461329
1336000,1.814805,0.347159,11.563994,10.591294,-4.356392,2.003314
1340000,1.587356,0.284910,11.346122,11.125646,-2.554866,2.262856
1344000,1.350330,0.347159,10.986992,10.743966,-0.692270,2.720871
1348000,0.967257,0.253785,10.690110,9.492058,1.017653,3.850643
1352000,0.967257,0.289698,10.409989,7.430989,1.689409,5.087284
1356000,1.149217,0.392649,10.520123,5.904272,1.765745,6.125452
1360000,1.252167,0.404620,10.524911,3.950073,1.857348,6.323925
1364000,1.419762,0.332794,10.532093,2.637096,1.643608,6.812475
1368000,1.525106,0.296881,10.678140,1.797401,0.819180,6.659803
1372000,1.491588,0.320823,10.977415,1.476791,-0.951812,6.659803
1376000,1.616086,0.404620,11.224017,2.545493,-2.967079,6.797207
1380000,1.810017,0.323217,11.358093,4.163814,-3.791507,6.476597
1384000,2.047042,0.244209,11.283873,5.293585,-3.669369,5.926979
1388000,2.202666,0.280122,11.056423,6.774501,-2.692270,5.148353
1392000,2.157176,0.323217,10.946290,7.568394,-1.791507,4.232322
1396000,2.059013,0.292093,10.572795,8.041677,-1.379293,3.713238
1400000,2.082955,0.344765,10.330980,8.377554,-1.547232,3.316291
1404000,2.161964,0.296881,9.967062,7.598928,-1.516698,2.888810
1408000,2.078167,0.177171,9.811439,6.667630,-1.440362,2.171253
1412000,1.905785,0.165200,9.631873,4.682898,-1.791507,1.697971
1416000,1.735796,0.131681,9.660604,2.667631,-2.035782,1.942245
1420000,1.561020,0.136469,9.732430,1.721066,-2.906011,2.201787
1424000,1.398214,0.158017,9.837775,0.347020,-3.547232,2.812474
1428000,1.328782,0.035913,9.983821,-0.614812,-3.883110,3.575833
1432000,1.187524,0.067038,10.177752,-1.790385,-3.898377,4.522398
1436000,1.149217,0.064643,10.517728,-2.798018,-3.822041,5.194154
1440000,0.991199,0.069432,10.848128,-2.309469,-3.654102,6.186521
1444000,0.912191,0.004788,11.154586,-2.080461,-4.280056,7.117818
1448000,0.926556,-0.031125,11.532869,-0.767484,-4.829675,8.232322
1452000,1.118092,0.122104,11.695675,1.217249,-4.631201,9.453695
1456000,1.223437,0.000000,11.650186,3.339386,-3.394560,9.865910
1460000,1.268927,0.016759,11.504139,4.621829,-1.562499,9.774306
1464000,1.192312,0.057461,11.468226,5.721066,-0.066316,10.186520
1468000,1.256956,0.107739,11.451467,7.003509,0.987119,10.659802
1472000,1.252167,0.083797,11.420342,8.087478,1.643608,11.178886
1476000,1.407791,0.246603,11.326968,9.125646,1.811547,11.972779
1480000,1.934515,0.275333,11.008539,9.659997,1.032921,12.217054
1484000,2.466028,0.138864,10.623073,9.003509,1.231394,11.087283
1488000,2.525883,0.093374,10.333375,7.492058,1.261928,8.934611
1492000,2.135628,0.114922,10.218452,5.629463,-0.631201,7.239955
1496000,1.900996,0.126893,10.371682,4.560760,-3.684637,6.552933
1500000,1.881842,0.174777,10.455479,3.736333,-5.669369,6.262856
1504000,2.197877,0.093374,10.465055,3.232516,-4.967079,5.682703
1508000,2.205060,0.038307,10.374076,2.667631,-2.570133,4.827742
1512000,1.944092,0.093374,10.390836,1.522592,-0.982347,4.293391
1516000,1.517924,0.124498,10.520123,0.255417,-1.562499,4.476597
1520000,1.335965,0.205901,10.757148,-0.553744,-4.218988,5.148353
1524000,1.285686,0.241814,11.006145,-0.507942,-7.211354,6.155986
1528000,1.675941,0.110133,11.006145,0.545493,-9.058682,6.919345
1532000,1.833959,0.179565,11.080365,0.408088,-8.081583,6.766673
1536000,1.843535,0.090980,11.137826,0.957707,-7.073949,6.598734
1540000,1.824382,0.062249,11.224017,0.743966,-6.921278,6.339192
1544000,1.759738,0.081403,11.300632,1.079844,-7.272423,5.835375
1548000,1.699883,0.107739,11.511322,1.934806,-7.104484,5.759039
1552000,1.666364,0.165200,11.568783,3.095111,-6.127385,6.094917
1556000,1.893813,0.052672,11.446678,4.133279,-3.623568,6.217055
1560000,2.001553,0.074220,11.247959,4.087478,-0.677003,5.636902
1564000,1.769315,0.035913,11.279084,4.041677,0.025287,5.377360
1568000,1.510741,0.031125,11.367670,3.782134,-1.822041,5.591101
1572000,1.405396,0.110133,11.386824,3.492058,-4.325858,5.972780
1576000,1.515530,0.191536,11.386824,3.873737,-5.608301,6.125452
1580000,1.594538,0.213084,11.484985,4.209615,-4.371659,6.217055
1584000,1.697489,0.122104,11.480197,5.003509,-1.791507,6.430795
1588000,1.805228,0.256180,11.504139,5.690531,0.559638,6.110185
1592000,1.793257,0.246603,11.329363,6.392821,2.101623,5.957513
1596000,1.889025,0.292093,11.106702,6.560760,1.582539,5.468963
1600000,2.169147,0.220267,10.891224,6.224882,0.788646,4.583467
1604000,2.355895,0.325611,10.666168,5.644730,0.254295,3.163620
1608000,2.248155,0.225055,10.639832,5.201982,0.376432,1.820108
1612000,2.054225,0.222661,10.539276,4.774501,0.391699,1.178887
1616000,1.867477,0.220267,10.522516,4.469157,-0.005247,0.644536
1620000,1.793257,0.280122,10.515334,4.316485,-0.799140,0.705604
1624000,1.836353,0.258574,10.512939,4.301219,-1.837308,0.430795
1628000,1.783680,0.222661,10.529699,4.041677,-3.577766,0.171253
1632000,1.776498,0.186748,10.742783,3.858470,-4.829675,0.079650
1636000,1.862689,0.213084,10.761936,3.782134,-5.852575,-0.393632
1640000,1.857901,0.112527,10.994174,4.682898,-5.715171,-0.714243
1644000,1.776498,0.179565,10.958261,5.766867,-5.272423,-0.576838
1648000,1.711854,0.155623,10.711658,6.255417,-4.005247,-0.866915
1652000,1.810017,0.062249,10.618284,6.530226,-3.364026,-0.683709
1656000,1.714248,0.079009,10.551247,6.545493,-2.783873,-0.744777
1660000,1.541866,0.069432,10.512939,6.591295,-2.875476,-0.515770
1664000,1.517924,0.064643,10.398018,6.301218,-3.028148,0.110184
1668000,1.570596,0.074220,10.357317,5.812669,-3.104484,0.629268
1672000,1.692701,-0.004788,10.402806,5.232516,-2.051049,1.209421
1676000,1.757344,-0.021548,10.287885,4.743967,-1.089217,1.621635
1680000,1.695095,0.055067,10.249578,4.209615,-0.554866,1.759039
1684000,1.726219,-0.021548,10.354922,3.293585,-0.722805,1.804841
1688000,1.845930,0.026336,10.496181,2.713432,-0.646469,1.682703
1692000,2.011129,-0.004788,10.649409,2.484425,-0.554866,1.301024
1696000,1.908179,0.102951,10.623073,2.453890,0.208493,0.797207
1700000,1.874660,0.062249,10.632649,2.316485,1.063455,0.675070
1704000,1.805228,0.172383,10.599131,2.606562,2.010020,0.522398
1708000,1.728614,0.196325,10.524911,2.743967,3.048188,0.614001
1712000,1.774103,0.134075,10.295067,2.408089,4.101623,0.629268
1716000,1.793257,0.069432,10.122684,1.598928,3.368799,0.598734
1720000,2.020706,0.045490,10.268731,0.224882,1.918417,0.140719
1724000,2.202666,-0.033519,10.510546,0.133279,-0.325858,-0.454701
1728000,2.178724,-0.045490,10.733206,0.163814,-1.898377,-1.401266
1732000,1.922544,-0.050278,10.922348,0.270684,-3.425095,-1.752411
1736000,1.714248,-0.114922,10.781090,1.064577,-3.745705,-1.691342
1740000,1.628057,-0.193930,10.548853,0.835569,-4.096850,-1.172258
1744000,1.644817,-0.304064,10.536881,-0.202598,-4.280056,-0.546304
1748000,1.572991,-0.213084,10.771513,-1.546110,-5.699903,-0.363098
1752000,1.707066,-0.191536,11.197681,-1.836186,-7.333491,-0.576838
1756000,1.757344,-0.138864,11.403583,-1.622446,-7.516697,-0.439434
1760000,1.800440,-0.134075,11.360487,-1.011759,-5.898377,-0.393632
1764000,1.833959,-0.083797,11.389217,-0.462140,-3.669369,-0.210426
1768000,1.740585,-0.055067,11.422736,0.056943,-0.936545,-0.057755
1772000,1.613692,-0.107739,11.477803,1.003508,-0.035782,-0.088289
1776000,1.551443,0.093374,11.422736,1.919539,-0.127385,-0.011953
1780000,1.668759,0.079009,11.283873,2.682898,-0.631201,0.262856
1784000,1.666364,0.045490,11.101913,2.972974,-0.890743,0.430795
1788000,1.496376,0.117316,11.034876,2.820302,-1.226621,0.751406
1792000,1.441309,0.263362,11.085154,2.499691,-3.028148,1.285757
1796000,1.371878,0.222661,11.085154,2.484425,-4.234255,2.140719
1800000,1.532289,0.263362,10.852917,2.255417,-4.402194,2.736139
1804000,1.599327,0.179565,10.836157,2.102745,-3.455629,3.117818
1808000,1.915361,0.193930,10.730812,1.782134,-1.638835,3.239955
1812000,1.958457,0.251391,10.678140,1.522592,0.177959,3.056749
1816000,2.118869,0.093374,10.737994,1.568394,0.635974,2.720871
1820000,2.260126,0.071826,10.776301,1.171447,0.635974,2.033848
1824000,2.334347,0.038307,10.666168,1.201982,0.269562,1.072016
1828000,2.262521,0.002394,10.668563,0.866104,-0.157919,0.201787
1832000,2.104503,-0.009577,10.647015,0.942440,-0.234255,-0.271495
1836000,1.778892,0.004788,10.656591,0.667630,-0.615934,-0.317297
1840000,1.776498,-0.026336,10.785878,1.064577,-1.776240,-0.195159
1844000,1.778892,-0.107739,10.632649,1.034043,-1.928911,-0.240961
1848000,1.764527,-0.143652,10.654198,1.049310,-1.623568,-0.546304
1852000,1.654393,-0.122104,10.500969,0.148546,-1.501431,-0.683709
1856000,1.553837,-0.028730,10.453085,-0.110996,-1.135018,-0.240961
1860000,1.467646,-0.031125,10.304645,-1.057560,-0.875476,-0.164625
1864000,1.474828,-0.071826,10.354922,-1.729316,-0.600667,0.278123
1868000,1.484405,-0.035913,10.366894,-2.981224,-1.287690,0.537665
1872000,1.426944,0.004788,10.625467,-3.591912,-1.547232,0.843009
1876000,1.319205,0.009577,10.771513,-3.866720,-2.890743,1.407894
1880000,1.338359,0.059855,10.970232,-4.004126,-3.272423,2.186520
1884000,1.333570,0.023942,11.092337,-3.607178,-3.455629,2.690337
1888000,1.316811,0.004788,11.274296,-3.393438,-3.455629,3.362093
1892000,1.381454,0.086191,11.477803,-2.355270,-4.188453,3.865910
1896000,1.575385,0.071826,11.633426,-0.874354,-4.570133,4.186521
1900000,1.855506,0.095768,11.841722,0.789768,-4.478529,3.759039
1904000,2.056619,0.067038,11.777079,2.362287,-2.921278,3.072016
1908000,2.097321,0.134075,11.633426,3.827936,-2.005247,2.583467
1912000,2.092532,0.057461,11.377247,4.713432,-1.867843,1.881177
1916000,2.075773,0.038307,11.226412,5.369921,-2.020514,1.301024
1920000,2.032677,0.062249,11.137826,5.537859,-2.829675,0.812474
1924000,1.900996,0.047884,11.154586,5.919539,-3.470896,0.522398
1928000,2.078167,0.083797,11.077971,6.163814,-3.531965,0.064383
1932000,2.236184,0.000000,10.809821,6.056943,-2.447995,-0.256228
1936000,2.224213,0.016759,10.745177,5.171447,-1.470896,-0.714243
1940000,1.982399,0.040701,10.735600,4.179081,-1.425095,-1.065388
1944000,1.922544,0.028730,10.764331,3.965340,-2.341125,-1.279129
1948000,1.886631,0.076614,10.927136,3.690531,-3.073950,-1.324930
1952000,1.917756,0.107739,10.951078,4.392821,-3.150285,-1.279129
1956000,1.929727,0.021548,10.934319,4.652363,-2.707537,-1.263861
1960000,1.994370,-0.050278,10.661380,4.576027,-1.822041,-1.263861
1964000,1.893813,-0.038307,10.584765,3.675264,-1.913644,-1.599739
1968000,1.719037,-0.014365,10.666168,2.835569,-2.493797,-1.966151
1972000,1.546654,0.050278,10.699687,2.285951,-3.715171,-1.859281
1976000,1.424550,0.088585,10.647015,2.087478,-4.447995,-0.866915
1980000,1.532289,0.150835,10.546458,1.690531,-3.898377,-0.088289
1984000,1.436521,0.129287,10.378864,1.034043,-2.264789,0.446062
1988000,1.304840,0.098162,10.170568,-0.340003,-1.638835,1.239955
1992000,1.048660,0.081403,10.390836,-1.607178,-2.829675,2.690337
1996000,1.189918,0.119710,10.630256,-2.492675,-4.646469,3.438429
