time_us,ax,ay,az,gx,gy,gz
0,0.979228,0.155623,10.960655,-0.675881,0.406966,-0.057755
4000,0.859518,0.158017,11.176133,-0.492675,-0.249522,-0.271495
8000,0.768539,0.141258,11.350910,-0.401072,-1.226621,0.201787
12000,0.797269,0.162806,11.501745,0.591295,-1.791507,0.583467
16000,0.948104,0.160412,11.528081,1.598928,-1.455629,0.797207
20000,0.948104,0.090980,11.432313,2.240149,-0.280056,0.690337
24000,0.952892,0.189142,11.233594,3.003508,0.406966,0.705604
28000,0.926556,0.253785,11.128249,3.156180,0.468035,1.026215
32000,1.000776,0.210690,11.015722,3.125646,0.345898,1.087284
36000,1.118092,0.234632,10.951078,2.942440,-0.753339,0.690337
40000,1.323994,0.220267,10.867282,2.713432,-1.333492,-0.057755
44000,1.369483,0.251391,10.982203,2.102745,-2.249522,-0.592106
48000,1.300052,0.232238,11.137826,2.301218,-3.196087,-1.263861
52000,1.278504,0.191536,11.121067,2.759233,-3.150285,-1.584472
56000,1.110910,0.282516,11.077971,3.125646,-2.218988,-1.752411
60000,1.048660,0.222661,10.965444,3.171447,-1.104484,-1.752411
64000,0.960075,0.232238,10.977415,3.003508,-0.280056,-1.416533
68000,1.089362,0.258574,10.893618,2.942440,0.208493,-1.355464
72000,1.165976,0.222661,10.927136,2.789768,0.895516,-1.645541
76000,1.031901,0.220267,10.848128,1.980608,0.895516,-1.676075
80000,1.022324,0.248997,11.022904,1.812669,0.116890,-1.492869
84000,1.019930,0.287304,11.101913,1.721066,-0.493797,-1.401266
88000,1.146823,0.251391,11.125855,1.995875,-0.829675,-1.569205
92000,1.122881,0.270545,11.094730,2.408089,-0.447995,-1.462335
96000,1.010353,0.210690,10.994174,2.301218,0.132157,-1.615006
100000,1.005565,0.191536,11.008539,2.789768,-0.066316,-1.263861
104000,1.058237,0.227449,11.101913,3.095111,-0.218988,-1.050121
108000,1.024718,0.237026,11.051635,3.324119,-1.104484,-0.989052
112000,1.012747,0.268151,11.123461,3.156180,-1.379293,-0.973785
116000,1.077391,0.280122,11.077971,3.568394,-1.180820,-0.729510
120000,1.072602,0.213084,11.063606,4.179081,-0.402194,-0.882182
124000,1.063026,0.126893,10.891224,4.133279,0.941318,-0.668442
128000,0.993594,0.148441,10.807426,3.751600,1.887883,-0.622640
132000,0.754174,0.117316,10.869676,3.675264,2.086356,-0.576838
136000,0.651223,0.026336,10.874464,3.263050,1.139791,-0.118823
140000,0.689530,0.169988,10.948685,3.247783,-0.218988,0.751406
144000,0.770933,0.201113,10.936713,3.171447,-0.692270,1.255223
148000,0.900220,0.114922,10.907983,3.324119,-0.707537,1.560566
152000,0.919373,0.131681,10.735600,3.186715,-0.936545,1.606368
156000,0.897826,0.169988,10.649409,2.408089,-1.440362,1.560566
160000,0.876278,0.169988,10.733206,2.209615,-2.524331,1.606368
164000,0.869095,0.165200,10.702082,1.904272,-4.051049,1.667436
168000,0.876278,0.213084,10.802638,1.950073,-4.799140,2.003314
172000,0.890643,0.210690,10.828975,2.209615,-4.738071,2.064383
176000,0.912191,0.213084,10.852917,2.285951,-4.356392,2.690337
180000,1.036689,0.289698,10.872070,2.377554,-4.722805,3.102551
184000,1.218649,0.296881,10.886436,2.438623,-5.333491,2.858276
188000,1.575385,0.246603,10.881647,2.362287,-5.287690,2.110184
192000,1.642422,0.227449,10.812215,2.270684,-5.073949,1.056749
196000,1.462857,0.292093,10.936713,2.499691,-4.799140,0.522398
200000,1.412579,0.311246,10.955867,3.018775,-4.234255,0.003314
204000,1.352724,0.241814,10.941502,3.476791,-3.028148,0.003314
208000,1.426944,0.208296,10.749966,3.782134,-1.364026,-0.164625
212000,1.391031,0.232238,10.706870,3.690531,-0.264789,-0.561571
216000,1.405396,0.234632,10.462662,2.927173,-0.417461,-0.821113
220000,1.379060,0.253785,10.505757,2.316485,-0.661736,-1.416533
224000,1.292869,0.282516,10.503363,1.492058,-1.073950,-1.553938
228000,1.242591,0.272939,10.568007,0.362287,-2.188453,-1.782945
232000,1.223437,0.260968,10.690110,0.011142,-2.982346,-1.645541
236000,1.137246,0.196325,10.790668,-0.141530,-3.028148,-1.676075
240000,1.142034,0.256180,10.869676,-0.065194,-2.936545,-1.874548
244000,1.130063,0.213084,10.857705,0.087478,-2.997614,-1.721877
248000,0.979228,0.186748,10.939108,-0.126262,-2.447995,-1.645541
252000,0.916979,0.193930,10.929531,-0.172064,-2.982346,-1.615006
256000,0.780510,0.208296,10.939108,-0.278934,-3.715171,-1.294396
260000,0.818817,0.220267,11.015722,-0.324736,-4.157919,-0.744777
264000,0.684742,0.205901,10.860099,-0.691148,-4.203721,-0.256228
268000,0.797269,0.239420,10.963050,-0.614812,-4.051049,-0.011953
272000,0.821211,0.198719,10.869676,-0.828552,-4.005247,0.247589
276000,0.641646,0.198719,10.996569,-1.286568,-4.493797,0.827742
280000,0.735020,0.198719,11.051635,-1.011759,-5.791507,1.301024
284000,0.955287,0.292093,11.288661,-0.553744,-6.509064,1.713238
288000,1.163582,0.148441,11.326968,-0.080461,-6.341125,1.407894
292000,1.233014,0.196325,11.362882,0.530226,-5.043415,1.072016
296000,1.194707,0.225055,11.243171,1.232516,-4.738071,0.598734
300000,1.211466,0.241814,11.322180,2.209615,-4.142652,0.339192
304000,1.063026,0.169988,11.326968,2.514959,-3.959446,0.155986
308000,1.096544,0.119710,11.307815,2.942440,-4.264789,-0.042487
312000,1.142034,0.227449,11.310209,3.659997,-4.341125,-0.088289
316000,1.307234,0.181959,11.274296,4.209615,-4.234255,-0.454701
320000,1.249773,0.186748,11.106702,4.362287,-4.127385,-0.531037
324000,1.304840,0.134075,10.970232,3.995875,-3.944179,-1.126457
328000,1.304840,0.208296,10.915166,3.461524,-4.035782,-1.477602
332000,1.142034,0.215478,10.864887,2.759233,-4.249522,-1.798213
336000,1.041478,0.313640,10.948685,2.499691,-4.432728,-2.149358
340000,1.000776,0.244209,11.025299,2.087478,-4.157919,-1.828747
344000,0.964863,0.205901,11.032481,2.392821,-3.318224,-1.630274
348000,0.938527,0.287304,11.003751,2.667631,-2.112118,-1.340197
352000,0.957681,0.272939,11.022904,2.545493,-1.150285,-1.187526
356000,0.902614,0.330400,10.852917,2.285951,-1.135018,-1.141724
360000,0.794875,0.215478,10.790668,1.934806,-1.272423,-0.805846
364000,0.749385,0.265756,10.692505,1.369921,-1.852576,-0.592106
368000,0.646434,0.296881,10.788273,0.942440,-2.585400,-0.073022
372000,0.763750,0.335188,10.867282,0.667630,-2.860209,0.400261
376000,0.768539,0.270545,10.881647,0.713432,-2.127385,0.904078
380000,0.799663,0.275333,10.934319,0.560760,-1.562499,1.239955
384000,0.826000,0.229843,10.934319,0.866104,-1.364026,1.560566
388000,0.905008,0.172383,10.963050,0.728699,-0.890743,1.453696
392000,0.993594,0.196325,10.977415,0.621829,-0.295324,1.346826
396000,0.995988,0.191536,11.037270,0.728699,-0.677003,1.591100
400000,0.893037,0.189142,11.118672,0.850837,-1.654102,1.362093
404000,0.876278,0.217872,11.178528,1.217249,-3.699904,1.743772
408000,0.849942,0.248997,11.295844,1.400455,-5.944179,2.079650
412000,0.967257,0.193930,11.312603,2.179081,-6.967079,2.217055
416000,1.039083,0.201113,11.238382,2.438623,-7.089217,2.094917
420000,1.048660,0.148441,11.259931,2.743967,-6.478529,2.110184
424000,1.053449,0.253785,11.240777,3.125646,-5.654102,1.850642
428000,1.089362,0.244209,11.269507,3.782134,-5.241889,1.835375
432000,1.161188,0.284910,11.073183,3.934806,-5.287690,1.957513
436000,1.072602,0.248997,11.001357,3.797401,-6.631201,2.094917
440000,1.197101,0.239420,10.852917,3.507325,-7.577766,1.774307
444000,1.333570,0.280122,10.852917,3.049310,-7.745705,1.148352
448000,1.302446,0.287304,10.860099,2.392821,-7.577766,0.491864
452000,1.242591,0.292093,10.824186,2.179081,-6.554865,0.323925
456000,1.113304,0.313640,10.888829,2.209615,-5.547232,0.079650
460000,1.288081,0.239420,10.941502,2.072211,-4.218988,0.018581
464000,1.290475,0.282516,11.049241,2.148547,-2.783873,0.033849
468000,1.249773,0.287304,11.176133,2.072211,-1.883110,-0.408900
472000,1.199495,0.337582,11.195287,2.224883,-1.822041,-0.408900
476000,1.201889,0.246603,11.147403,2.713432,-2.112118,-0.332564
480000,1.168370,0.198719,11.147403,2.881371,-1.669369,-0.515770
484000,1.254562,0.244209,11.101913,2.988241,-1.043415,-0.347831
488000,1.125275,0.222661,11.128249,3.232516,-0.860209,-0.240961
492000,1.134852,0.215478,11.010934,3.156180,-0.692270,-0.118823
496000,1.201889,0.203507,10.979809,3.034043,-0.554866,-0.027220
500000,1.142034,0.191536,10.922348,2.789768,-0.295324,0.033849
504000,1.132457,0.258574,10.915166,2.408089,-0.402194,0.262856
508000,1.204283,0.203507,10.879252,2.347020,-0.249522,0.186520
512000,1.261744,0.241814,10.996569,2.209615,-0.142652,0.323925
516000,1.352724,0.246603,11.082760,2.377554,0.071089,0.018581
520000,1.357512,0.229843,11.094730,2.820302,-0.402194,-0.103556
524000,1.357512,0.174777,11.101913,3.018775,-0.142652,-0.271495
528000,1.307234,0.277727,11.046846,2.820302,0.666508,-0.515770
532000,1.209072,0.253785,10.943896,2.743967,1.353531,-0.637907
536000,1.194707,0.258574,10.960655,2.743967,1.445134,-0.531037
540000,1.249773,0.193930,11.001357,2.576027,0.605440,-0.515770
544000,1.395820,0.215478,11.142614,2.805035,-0.493797,-0.851648
548000,1.489193,0.258574,11.137826,3.263050,-1.730438,-1.019587
552000,1.407791,0.177171,11.037270,3.492058,-3.073950,-1.355464
556000,1.230620,0.153229,11.010934,3.644730,-3.715171,-1.630274
560000,1.244985,0.169988,10.836157,3.614195,-4.692270,-1.706609
564000,1.154005,0.205901,10.805033,3.568394,-4.829675,-1.844014
568000,1.168370,0.165200,10.812215,3.659997,-4.371659,-1.996686
572000,1.254562,0.174777,10.682928,3.171447,-3.547232,-1.828747
576000,1.240196,0.134075,10.632649,2.850837,-2.814408,-2.011953
580000,1.170765,0.129287,10.536881,2.011142,-2.249522,-1.966151
584000,1.086968,0.167594,10.663774,1.217249,-2.005247,-1.950884
588000,1.103727,0.181959,10.584765,0.896638,-1.654102,-1.782945
592000,1.108515,0.141258,10.553641,0.621829,-1.379293,-1.416533
596000,1.149217,0.181959,10.603919,0.056943,-0.921278,-1.279129
600000,1.154005,0.117316,10.529699,0.056943,-0.753339,-1.034854
604000,1.223437,0.203507,10.527305,-0.523209,-0.982347,-0.989052
608000,1.233014,0.138864,10.618284,-1.225499,-0.860209,-0.989052
612000,1.268927,0.165200,10.757148,-1.362904,-1.867843,-1.202793
616000,1.280898,0.203507,10.986992,-1.515576,-1.959446,-1.202793
620000,1.266533,0.098162,11.003751,-1.378171,-1.989980,-1.309663
624000,1.225831,0.134075,10.996569,-1.011759,-1.425095,-1.309663
628000,1.098939,0.131681,11.010934,-0.935423,-0.829675,-1.569205
632000,0.960075,0.067038,11.015722,-0.569010,-1.104484,-1.355464
636000,0.912191,0.067038,11.125855,-0.156797,-1.730438,-0.927984
640000,0.950498,-0.009577,11.178528,0.148546,-2.493797,-0.897449
644000,0.986411,0.035913,11.116279,0.820302,-2.783873,-0.698976
648000,0.893037,0.081403,11.068395,1.125646,-2.753339,-0.683709
652000,0.881066,0.122104,10.922348,1.064577,-2.386927,-0.531037
656000,0.816423,0.040701,10.840945,1.171447,-2.829675,-0.042487
660000,0.754174,0.088585,10.747571,0.896638,-3.333492,0.217055
664000,0.806846,0.150835,10.874464,0.667630,-4.386927,0.659803
668000,0.955287,0.093374,10.989386,0.667630,-5.226621,0.995681
672000,1.158794,0.117316,11.149797,1.156180,-5.257155,0.843009
676000,1.498770,0.069432,11.200075,1.553127,-4.707537,0.400261
680000,1.613692,-0.011971,11.147403,2.224883,-2.967079,-0.561571
684000,1.513135,0.064643,11.037270,2.652363,-1.364026,-1.737144
688000,1.326388,0.021548,11.027693,2.759233,-1.043415,-1.981419
692000,1.218649,0.038307,11.133038,3.354653,-1.272423,-2.210426
696000,1.218649,-0.011971,10.986992,3.156180,-1.638835,-2.347831
700000,1.295263,-0.031125,10.991780,2.911905,-1.196087,-2.469968
704000,1.374272,0.016759,10.917560,2.255417,-0.661736,-3.095922
708000,1.252167,0.014365,10.998962,1.843203,-0.203721,-3.401266
712000,1.132457,0.131681,11.022904,1.827936,-0.264789,-3.599739
716000,1.055843,0.117316,10.986992,1.721066,-0.325858,-3.737144
720000,0.797269,0.129287,10.994174,1.827936,0.177959,-3.187526
724000,0.749385,0.141258,10.939108,1.797401,0.437501,-2.576838
728000,0.758962,0.141258,11.027693,2.224883,0.773379,-2.424167
732000,0.696713,0.131681,11.001357,2.408089,0.880249,-2.073022
736000,0.696713,0.126893,10.986992,2.347020,0.101623,-1.508136
740000,0.730232,0.076614,11.003751,2.682898,-0.356392,-1.233327
744000,0.768539,0.158017,10.905589,2.621829,-0.814408,-0.851648
748000,0.749385,0.119710,10.833763,2.514959,-1.593034,-0.408900
752000,0.677559,0.081403,10.869676,2.377554,-2.005247,0.003314
756000,0.735020,0.088585,10.917560,2.301218,-2.478530,0.400261
760000,0.766145,0.062249,10.984597,2.347020,-2.615934,1.087284
764000,0.842759,0.098162,11.118672,2.743967,-3.302957,1.560566
768000,0.955287,0.100556,11.077971,3.217249,-3.119751,1.682703
772000,1.209072,0.043096,11.032481,3.507325,-1.837308,1.652169
776000,1.295263,0.067038,10.814610,3.507325,-1.318224,1.362093
780000,1.180341,0.069432,10.642226,3.003508,-1.272423,1.255223
784000,1.134852,0.117316,10.536881,2.255417,-2.249522,0.934612
788000,1.127669,0.172383,10.469844,1.782134,-3.226621,1.270490
792000,1.144428,0.138864,10.527305,1.247783,-3.608301,1.270490
796000,1.280898,0.081403,10.553641,0.927172,-2.753339,1.285757
800000,1.410185,0.119710,10.556035,0.698165,-1.547232,0.888810
804000,1.522712,0.076614,10.754754,0.682898,-0.478530,0.614001
808000,1.489193,0.201113,10.716447,0.347020,0.269562,0.079650
812000,1.446098,0.050278,10.702082,0.285951,0.666508,-0.256228
816000,1.335965,0.110133,10.759542,0.194348,0.468035,-0.714243
820000,1.302446,0.040701,10.934319,0.560760,0.300096,-0.714243
824000,1.314417,0.090980,10.982203,0.957707,0.254295,-0.714243
828000,1.333570,0.064643,11.171345,1.995875,0.574905,-1.050121
832000,1.165976,-0.016759,11.156980,2.285951,1.002386,-0.866915
836000,1.199495,-0.007183,11.042058,2.576027,0.147424,-0.744777
840000,1.261744,-0.062249,10.979809,2.514959,0.391699,-0.958518
844000,1.187524,-0.160412,10.797850,2.255417,0.162692,-1.340197
848000,0.864307,-0.184354,10.855310,1.629462,-1.318224,-1.218060
852000,0.830788,-0.124498,10.924743,1.293585,-3.318224,-0.729510
856000,1.079785,-0.153229,10.943896,1.003508,-4.661736,-0.363098
860000,1.039083,-0.239420,10.998962,0.667630,-4.142652,-0.668442
864000,1.098939,-0.284910,11.118672,0.438623,-3.898377,-0.637907
868000,0.981623,-0.244209,11.125855,0.560760,-4.112117,-0.363098
872000,0.972046,-0.349553,11.190498,0.881371,-4.814407,-0.225693
876000,0.974440,-0.383072,11.221623,1.079844,-4.753339,-0.179892
880000,0.811634,-0.450110,11.274296,1.003508,-5.913644,0.125452
884000,0.888249,-0.404620,10.986992,0.759233,-8.356393,0.766673
888000,1.510741,-0.579397,11.322180,1.629462,-6.921278,0.446062
892000,1.383849,-0.507571,11.116279,1.400455,-4.173186,-0.637907
896000,1.051055,-0.615310,11.101913,1.385188,-3.302957,-1.004319
900000,0.730232,-0.627281,11.216835,1.568394,-3.516698,-0.149358
904000,0.730232,-0.636858,11.221623,1.537859,-3.241888,0.384994
908000,0.778116,-0.782904,11.147403,1.201982,-2.234255,0.781940
912000,0.790087,-0.840365,11.104307,0.835569,-1.913644,1.056749
916000,0.845153,-0.871489,11.255142,0.392821,-2.218988,1.484230
920000,0.864307,-0.969652,11.475409,0.179081,-1.837308,1.850642
924000,0.694318,-1.048660,11.643003,-0.141530,-1.577766,1.789574
928000,0.600945,-1.122881,11.848905,0.285951,-1.226621,2.018581
932000,0.495600,-1.180341,11.992557,1.110379,-1.379293,2.980413
936000,0.663194,-1.362301,12.081141,1.934806,0.147424,3.377360
940000,0.735020,-1.450886,12.126632,2.576027,1.796279,3.606368
944000,0.876278,-1.503559,12.085930,3.125646,3.552005,3.285757
948000,0.802058,-1.618480,12.004527,3.171447,3.933684,2.873543
952000,0.713472,-1.731008,12.243947,3.492058,3.658875,2.705604
956000,0.658405,-1.719037,12.344504,4.408089,3.124524,2.843009
960000,0.761356,-1.869871,12.299014,5.247783,2.559638,2.919345
964000,0.912191,-1.987187,12.318168,6.285951,2.819180,3.194154
968000,0.931344,-2.042254,12.322956,6.728699,3.903150,3.056749
972000,0.828394,-2.190695,12.421119,7.110379,4.574905,2.583467
976000,0.505177,-2.315193,12.488156,7.934806,3.032921,2.873543
980000,0.462081,-2.415750,12.636597,8.957706,1.261928,3.545299
984000,0.524330,-2.415750,12.706028,10.240149,0.803913,3.759039
988000,0.770933,-2.470816,12.792220,12.118012,1.002386,4.003314
992000,0.663194,-2.547431,12.825739,14.362287,1.399333,4.217055
996000,0.672771,-2.588132,12.653356,15.950073,0.529104,4.736139
1000000,0.806846,-2.801216,12.741941,17.186714,0.406966,4.827742
1004000,0.936133,-2.873042,12.548011,18.606562,0.101623,4.552933
1008000,1.031901,-3.028665,12.471396,20.041677,-0.936545,4.323925
1012000,1.101333,-3.134010,12.310986,21.385189,-1.333492,4.247589
1016000,0.969652,-3.112462,12.215217,22.102745,-1.455629,4.064383
1020000,0.577003,-3.088520,12.150574,23.140913,-2.600667,4.690337
1024000,0.234632,-3.167529,12.200851,24.301220,-5.089217,6.461329
1028000,0.318429,-3.244143,12.114660,25.369921,-7.684637,8.003314
1032000,1.048660,-3.567361,11.609484,25.079845,-8.249522,8.781940
1036000,1.776498,-3.746926,11.286267,23.751600,-7.043415,6.965147
1040000,1.675941,-3.749320,11.118672,21.995876,-6.509064,4.675070
1044000,0.940921,-3.746926,11.317391,20.255417,-8.478530,3.820108
1048000,0.093374,-3.864242,11.698070,19.980608,-11.455629,4.827742
1052000,-0.253785,-3.986346,11.992557,20.820303,-13.486164,6.858276
1056000,-0.490811,-4.048595,12.210428,22.056944,-12.341125,9.759039
1060000,-0.529119,-4.173094,12.318168,22.820303,-10.249522,13.239955
1064000,-0.306458,-4.108450,12.366052,23.812670,-8.646469,16.217054
1068000,0.031125,-4.230555,12.332533,24.866104,-7.852575,18.430796
1072000,0.385466,-4.283227,12.018892,25.415724,-7.883110,19.713238
1076000,0.533907,-4.232949,11.954249,25.675264,-8.554866,20.797209
1080000,0.588974,-4.309563,11.961432,26.392822,-10.402194,22.003315
1084000,0.864307,-4.297592,11.947066,27.553127,-12.661736,23.087284
1088000,1.391031,-4.163517,11.939884,29.186716,-14.417461,23.026215
1092000,2.145205,-4.003105,11.935096,30.835569,-14.341125,21.530033
1096000,2.664747,-3.768473,11.621455,32.591293,-12.921278,18.766674
1100000,2.755726,-3.457227,11.370064,33.950073,-11.394561,16.446062
1104000,2.482787,-3.347094,10.931925,34.927174,-10.020514,14.308658
1108000,2.025495,-3.256114,10.323798,33.797401,-10.814408,13.194154
1112000,1.649605,-3.117251,10.149021,32.179081,-12.112118,12.476596
1116000,1.046266,-2.947262,10.228029,30.087479,-13.470897,12.720871
1120000,0.586579,-2.724602,10.747571,28.820303,-14.799141,13.453695
1124000,0.481235,-2.604892,11.082760,29.186716,-15.531965,15.224688
1128000,0.615310,-2.398990,11.116279,28.957708,-13.501431,17.224689
1132000,0.840365,-2.226608,11.032481,29.492058,-10.051049,18.247589
1136000,0.900220,-2.080561,10.838552,29.827936,-7.715171,18.781940
1140000,0.670376,-1.929727,10.788273,29.095112,-7.822041,19.652170
1144000,0.651223,-1.752556,10.594342,28.606562,-11.028149,20.629269
1148000,0.991199,-1.474828,10.637438,28.224884,-14.402194,21.285757
1152000,1.300052,-1.443704,10.594342,28.240150,-16.035782,21.850643
1156000,1.450886,-1.414973,10.771513,28.148548,-16.997614,22.094917
1160000,1.312023,-1.283292,11.233594,27.797401,-18.585400,22.583467
1164000,1.699883,-1.110910,12.071565,29.522593,-19.989981,23.239956
1168000,2.339135,-1.074997,12.600683,33.079845,-19.150286,22.568201
1172000,2.983175,-1.118092,12.418724,37.140915,-14.707538,21.087284
1176000,3.481169,-1.072602,11.762712,39.598930,-8.570133,18.491865
1180000,3.655946,-1.053449,10.986992,40.652363,-2.157919,15.530032
1184000,3.299210,-0.960075,10.273520,40.591297,0.864982,12.339191
1188000,2.726996,-0.885855,9.751583,38.743969,-1.806774,9.759039
1192000,2.516306,-0.744597,9.560047,36.224884,-7.806774,8.201787
1196000,2.296039,-0.577003,9.299079,33.095112,-12.539598,6.904078
1200000,2.173935,-0.450110,9.483433,29.675264,-15.822042,5.850643
1204000,1.958457,-0.280122,9.665392,27.232517,-16.860210,5.636902
1208000,1.630451,-0.023942,9.847352,25.751600,-16.264790,5.743773
1212000,1.350330,0.124498,10.010158,25.018776,-14.753339,6.049116
1216000,1.314417,0.299275,10.005369,24.713432,-11.654102,6.003314
1220000,1.309628,0.466869,10.125079,24.911905,-5.944179,5.606368
1224000,1.230620,0.656011,9.883265,25.568394,2.055821,5.041482
1228000,1.115698,0.641646,9.380483,25.537861,11.826814,4.552933
1232000,0.725443,0.718261,8.760384,24.484425,21.216125,4.659803
1236000,0.272939,0.773327,8.315063,20.316486,27.368797,5.163620
1240000,-0.057461,0.873884,8.377312,15.690531,28.605440,6.155986
1244000,-0.086191,1.235408,8.968679,12.179081,26.025288,7.209421
1248000,0.117316,1.355118,9.449914,10.331753,23.353531,8.262856
1252000,0.524330,1.371878,9.629479,9.247784,20.834448,9.133085
1256000,0.826000,1.517924,9.844957,8.530226,17.750477,9.804840
1260000,1.292869,1.699883,10.139444,8.179081,13.887882,10.003314
1264000,2.044648,1.877054,10.441113,9.324119,8.681775,8.140718
1268000,2.624045,1.881842,10.311827,9.843203,2.468035,4.888811
1272000,2.772485,2.039860,10.101137,9.919538,-3.684637,1.102551
1276000,2.832341,2.339135,10.407595,10.011142,-9.608301,-2.103556
1280000,3.043030,2.552219,10.175357,11.049310,-12.371660,-5.737144
1284000,3.423708,2.554613,9.876082,11.293585,-11.867843,-9.584473
1288000,3.110068,2.643199,9.263166,10.484425,-9.043416,-13.050121
1292000,2.233790,2.703054,8.623915,7.064577,-9.440362,-14.378366
1296000,1.515530,2.743755,8.449138,2.667631,-12.478530,-14.805846
1300000,1.125275,2.940080,8.714894,-1.133896,-17.608301,-14.607373
1304000,1.110910,3.019088,9.153033,-3.317102,-21.028149,-14.622641
1308000,1.211466,3.055001,9.497798,-4.859087,-20.982347,-14.027221
1312000,1.510741,3.021482,9.720459,-5.836186,-15.776240,-13.370732
1316000,1.848324,3.078943,9.631873,-5.775118,-8.509065,-13.691342
1320000,2.128445,3.095703,9.373300,-6.538477,-2.157919,-14.698977
1324000,2.159570,2.904167,9.069236,-9.408706,1.781012,-16.622639
1328000,1.843535,3.019088,9.234436,-11.866721,0.040554,-18.561571
1332000,1.551443,3.016694,9.624691,-13.668248,-5.165553,-19.966150
1336000,1.503559,2.973598,9.797073,-14.324737,-8.921278,-20.637907
1340000,1.489193,2.609680,9.679757,-15.607179,-11.928912,-20.989052
1344000,1.960851,2.964022,9.548077,-19.759850,-12.860209,-20.866915
1348000,2.183512,3.062184,10.046070,-21.179697,-14.982347,-22.149357
1352000,1.539472,2.923320,10.503363,-23.408705,-19.699903,-24.103556
1356000,1.393425,3.071761,11.291056,-24.141529,-25.684637,-24.454700
1360000,1.666364,3.205836,12.205640,-22.813284,-30.371660,-25.401266
1364000,2.078167,3.294421,12.818556,-18.828552,-29.638836,-26.729509
1368000,2.600103,3.327940,13.139379,-14.019393,-23.135019,-29.156990
1372000,2.755726,3.335123,13.189657,-8.584278,-15.012881,-31.569204
1376000,2.676718,3.268085,12.926295,-4.278934,-7.913644,-34.531036
1380000,2.214637,3.201048,12.404359,-1.393438,-3.562499,-36.897449
1384000,2.042254,3.280056,12.006922,-0.217866,-2.677003,-38.866913
1388000,1.865083,3.351882,11.765107,0.682898,-4.173186,-40.317295
1392000,1.601721,3.473987,11.348516,1.247783,-6.432728,-41.156990
1396000,1.374272,3.447650,10.939108,0.759233,-8.906011,-41.202793
1400000,1.132457,3.620033,10.517728,0.133279,-11.959446,-41.019585
1404000,1.003170,3.797204,9.988609,-1.423972,-15.028149,-39.752411
1408000,1.058237,3.665523,9.557653,-3.347636,-17.638836,-38.698975
1412000,0.833182,3.481169,8.995016,-7.500309,-20.951813,-37.798210
1416000,0.758962,3.500323,9.042900,-12.446874,-24.554867,-36.851646
1420000,0.857124,3.574543,9.425972,-16.065193,-28.142653,-35.828747
1424000,1.228225,3.603274,9.703699,-18.950689,-28.402195,-35.279129
1428000,1.692701,3.555390,9.643845,-21.088095,-24.860210,-35.691341
1432000,1.788469,3.541024,9.612720,-23.194963,-18.081583,-36.439434
1436000,1.577779,3.505111,10.055647,-24.553743,-11.852576,-37.279129
1440000,1.206678,3.603274,10.508151,-24.828552,-8.096850,-37.340199
1444000,1.115698,3.655946,10.927136,-23.378170,-5.898377,-37.095921
1448000,1.450886,3.648763,10.931925,-21.317102,-3.501430,-36.729511
1452000,1.812411,3.497929,10.601525,-19.790384,-0.005247,-37.385998
1456000,2.047042,3.428497,10.383653,-19.561377,2.956585,-37.981419
1460000,1.980005,3.521871,10.491392,-20.019392,3.628341,-38.973785
1464000,1.908179,3.550601,10.718841,-19.256033,1.414600,-40.393631
1468000,1.910573,3.586514,10.685322,-18.614811,-2.096850,-41.477600
1472000,1.965640,3.541024,10.505757,-17.561377,-2.799140,-42.118824
1476000,1.831564,3.529053,10.486604,-16.874353,-2.646469,-42.485233
1480000,1.666364,3.521871,10.726024,-15.958323,-2.814408,-42.897449
1484000,1.656788,3.514688,10.817003,-14.691148,-3.654102,-42.790577
1488000,1.553837,3.481169,10.522516,-14.019393,-4.493797,-42.592106
1492000,1.527501,3.217807,10.338163,-14.904889,-5.638835,-42.546303
1496000,1.271321,3.220201,10.726024,-15.958323,-6.921278,-42.607372
1500000,1.142034,3.392584,11.133038,-15.958323,-8.829675,-42.622639
1504000,1.072602,3.359065,11.523293,-15.103362,-9.760973,-41.660809
1508000,1.142034,2.947262,11.690886,-11.897255,-8.631202,-40.271496
1512000,1.120486,3.126827,11.568783,-10.049927,-4.967079,-39.569202
1516000,1.290475,3.177106,11.207258,-10.309469,0.727577,-39.508137
1520000,1.331176,2.832341,11.180922,-11.103362,3.384066,-40.027218
1524000,1.240196,2.695871,11.142614,-11.927790,4.162692,-41.111191
1528000,0.897826,2.698265,11.147403,-13.408706,3.170325,-41.798210
1532000,0.557849,2.588132,11.173739,-15.057561,1.460402,-42.149357
1536000,0.186748,2.590526,11.484985,-14.859088,-1.333492,-40.042488
1540000,0.347159,2.726996,11.887212,-10.156797,-4.768606,-37.447067
1544000,0.641646,2.966416,11.559206,-15.149163,-0.463263,-37.111191
1548000,0.129287,2.142811,12.337321,-10.859087,0.910783,-34.927982
1552000,0.169988,2.329558,11.966220,-8.156797,-0.906011,-33.584473
1556000,0.344765,2.317587,11.812991,-4.462141,-1.547232,-31.752411
1560000,0.861913,2.470816,11.137826,-2.767484,-0.738072,-31.141724
1564000,0.869095,2.279280,10.639832,-3.576644,-0.112117,-31.630274
1568000,0.725443,1.975216,10.714052,-3.836186,-0.615934,-31.309662
1572000,0.572214,2.717419,10.824186,-5.072827,-1.791507,-31.767677
1576000,0.421380,1.850718,11.784261,-2.019392,-1.638835,-30.073021
1580000,0.811634,2.157176,10.967838,0.255417,-0.203721,-28.622639
1584000,1.244985,2.097321,10.931925,2.392821,5.399333,-27.401266
1588000,1.134852,2.188300,10.230424,1.018775,12.239027,-27.141724
1592000,0.600945,1.946486,9.931149,0.606562,14.071088,-26.256227
1596000,0.198719,2.135628,9.976639,-0.370538,9.842080,-24.576838
1600000,-0.067038,2.116474,9.974244,-1.652980,5.903150,-22.271494
1604000,0.196325,2.068590,10.110714,-3.378171,5.002387,-20.240959
1608000,0.526724,1.984793,10.582372,-2.691148,5.521471,-18.347830
1612000,1.029507,2.082955,10.721235,-1.881988,8.208493,-16.454700
1616000,1.300052,2.003947,10.742783,-1.286568,11.246661,-15.691342
1620000,1.350330,1.874660,10.934319,-0.584278,13.674142,-15.263862
1624000,1.280898,1.879448,10.824186,-0.187331,13.796279,-14.683709
1628000,1.455675,1.900996,10.922348,0.621829,13.032920,-14.958518
1632000,1.546654,1.929727,11.061212,2.285951,12.422234,-15.218060
1636000,1.611298,1.917756,10.943896,3.537859,11.948951,-14.973785
1640000,1.561020,1.812411,10.764331,4.301219,11.796279,-14.424167
1644000,1.417367,1.719037,10.654198,5.110379,10.590172,-14.027221
1648000,1.398214,1.821988,10.565612,5.339386,8.727577,-13.294396
1652000,1.295263,1.881842,10.570400,5.965341,5.750478,-12.439434
1656000,1.204283,1.819593,10.644621,6.652363,3.643608,-11.676076
1660000,1.256956,1.893813,10.232818,7.354653,2.284829,-10.469969
1664000,1.371878,1.731008,9.866506,6.759233,1.948951,-9.630274
1668000,1.577779,1.656788,9.354146,4.713432,2.208493,-9.218060
1672000,1.616086,1.699883,9.612720,2.667631,1.521470,-9.324930
1676000,1.558625,1.711854,9.890448,0.759233,-0.554866,-9.294396
1680000,1.565808,1.709460,10.098742,-0.278934,-1.486163,-9.080656
1684000,1.814805,1.692701,10.225636,-1.149163,0.162692,-8.576838
1688000,1.862689,1.613692,10.335769,-2.263667,3.261928,-8.698977
1692000,1.714248,1.537078,10.685322,-3.256034,5.643608,-8.408899
1696000,1.556231,1.570596,11.492168,-2.904888,4.819180,-8.103557
1700000,1.690306,1.742979,12.016499,-1.194965,2.483302,-7.767678
1704000,2.106898,1.697489,12.267890,1.889004,1.414600,-8.347831
1708000,2.272097,1.632846,12.133814,4.911905,2.300096,-9.447068
1712000,2.284068,1.563414,11.865664,8.285952,4.208493,-10.286762
1716000,2.030283,1.587356,11.365275,10.041677,5.231394,-11.447068
1720000,1.529895,1.577779,11.032481,10.347020,4.834447,-12.118824
1724000,1.130063,1.570596,10.651803,9.889005,3.292463,-11.981419
1728000,0.960075,1.671153,10.498574,8.911905,1.429867,-11.416533
1732000,0.945710,1.704672,10.570400,8.637096,1.521470,-10.729510
1736000,1.189918,1.728614,10.460267,7.843203,2.727577,-9.676076
1740000,1.256956,1.711854,10.192117,7.217249,4.559639,-8.790579
1744000,1.221043,1.692701,9.974244,5.965341,5.445135,-8.393633
1748000,1.125275,1.630451,9.885659,4.698165,4.788646,-7.828747
1752000,1.146823,1.659182,10.070012,4.011142,2.208493,-7.676075
1756000,1.388637,1.604115,10.216059,3.247783,-0.127385,-7.676075
1760000,1.510741,1.525106,10.431537,3.415722,-1.379293,-8.027221
1764000,1.620875,1.572991,10.642226,4.545493,-1.455629,-8.653174
1768000,1.824382,1.498770,10.970232,6.408089,-0.692270,-9.935617
1772000,1.558625,1.589750,10.381259,6.911905,1.155058,-10.469969
1776000,1.309628,1.544260,10.953473,8.301218,1.322997,-10.134090
1780000,1.168370,1.460463,10.771513,9.950073,-0.356392,-10.821114
1784000,0.974440,1.285686,10.714052,10.530226,-1.257156,-10.561572
1788000,0.893037,1.323994,10.773908,11.140913,-1.715171,-9.859282
1792000,0.847547,1.367089,10.953473,11.950073,-2.463263,-9.401266
1796000,0.885855,1.388637,11.056423,12.942439,-3.501430,-8.790579
1800000,0.873884,1.395820,10.965444,13.675264,-3.440362,-8.240961
1804000,0.708684,1.400608,10.874464,13.965341,-2.814408,-7.080655
1808000,0.737414,1.357512,10.548853,13.629462,-3.058682,-6.347831
1812000,0.766145,1.470040,10.402806,12.759233,-2.417461,-5.737144
1816000,1.003170,1.491588,10.261548,11.858470,-1.562499,-5.065388
1820000,1.149217,1.525106,10.149021,10.911905,0.284829,-4.912716
1824000,1.347936,1.510741,9.797073,9.537860,3.078722,-4.821113
1828000,1.266533,1.508347,9.473856,7.079844,6.300097,-4.653174
1832000,1.048660,1.541866,9.208099,3.782134,7.811547,-4.515770
1836000,0.933739,1.513135,9.421184,0.591295,6.864982,-3.676075
1840000,0.938527,1.635240,9.761160,-1.897255,5.292463,-2.821113
1844000,1.139640,1.683124,9.921572,-3.118629,4.223761,-1.981419
1848000,1.395820,1.599327,10.110714,-3.561377,5.032921,-1.370732
1852000,1.616086,1.659182,10.084377,-4.202599,7.414600,-1.172258
1856000,1.783680,1.628057,10.223241,-4.095729,8.880248,-1.828747
1860000,1.941698,1.668759,10.072407,-4.126263,8.880248,-2.546304
1864000,1.884237,1.575385,10.129868,-4.340003,7.964219,-3.492869
1868000,1.788469,1.508347,10.170568,-4.263667,6.010020,-4.592105
1872000,1.948880,1.472434,10.505757,-3.943056,3.658875,-5.905083
1876000,2.209848,1.458069,11.022904,-2.401072,3.048188,-7.859281
1880000,2.298434,1.453280,11.228806,-0.095728,4.101623,-9.767678
1884000,2.178724,1.422156,11.085154,2.194348,6.239028,-11.828747
1888000,1.640028,1.316811,10.843340,3.278317,7.765746,-13.141725
1892000,1.180341,1.256956,10.783484,3.537859,7.613074,-13.935617
1896000,0.830788,1.249773,10.781090,3.629463,6.010020,-13.920350
1900000,0.600945,1.204283,10.668563,2.988241,3.842081,-13.645541
1904000,0.304064,1.177947,10.685322,2.163814,2.712310,-13.202793
1908000,0.067038,1.134852,10.773908,0.499691,1.872615,-11.798213
1912000,-0.026336,1.106121,11.116279,-0.477408,0.971852,-10.256228
1916000,0.011971,1.072602,11.441890,-0.859087,0.010020,-8.561572
1920000,0.196325,1.086968,11.722012,-0.446873,-0.035782,-7.324930
1924000,0.373495,1.063026,11.733982,0.530226,0.895516,-6.515769
1928000,0.620098,1.039083,11.607090,1.476791,2.971852,-5.920350
1932000,0.569820,1.058237,11.413159,2.240149,5.109257,-6.240961
1936000,0.502782,0.995988,11.113884,1.965340,6.620707,-6.057755
1940000,0.265756,1.060631,11.118672,1.064577,5.964219,-5.645541
1944000,0.141258,1.161188,11.099519,0.499691,4.223761,-4.653174
1948000,0.268151,1.146823,11.073183,0.224882,1.261928,-3.263861
1952000,0.318429,1.223437,10.991780,-0.324736,-0.478530,-1.920350
1956000,0.562637,1.314417,10.996569,-0.385804,-1.348759,-0.714243
1960000,0.802058,1.268927,10.975020,-0.507942,-0.646469,-0.240961
1964000,0.782904,1.312023,10.860099,-0.049927,-0.173186,0.461329
1968000,0.615310,1.154005,10.740389,-0.294202,-1.180820,1.102551
1972000,0.840365,0.928950,11.063606,-0.889621,-3.058682,1.316291
1976000,1.168370,0.991199,11.403583,-0.675881,-4.325858,0.766673
1980000,1.482011,0.962469,11.736377,0.331753,-4.509064,-0.195159
1984000,1.606509,0.962469,11.908759,2.056943,-3.638835,-1.416533
1988000,1.673547,0.871489,11.930307,3.736333,-1.073950,-2.240961
1992000,1.656788,0.943315,11.738770,5.492058,2.330631,-2.989052
1996000,1.503559,0.830788,11.499351,6.469157,5.399333,-3.996686
