time_us,ax,ay,az,gx,gy,gz
0,-0.332794,0.545878,10.948685,1.675264,8.773378,-0.042487
4000,-0.457293,0.521936,10.912771,1.995875,9.200859,-0.164625
8000,-0.459687,0.497994,11.073183,2.377554,7.109257,-0.103556
12000,-0.464475,0.454898,11.034876,2.652363,4.239028,-0.164625
16000,-0.335188,0.490811,10.797850,2.576027,2.284829,-0.637907
20000,-0.155623,0.488417,10.867282,2.209615,1.384066,-1.263861
24000,-0.260968,0.462081,10.809821,1.629462,1.032921,-1.721877
28000,-0.311246,0.373495,10.939108,1.400455,0.941318,-2.271495
32000,-0.354342,0.397437,10.903194,1.446256,1.322997,-2.225693
36000,-0.519542,0.459687,10.891224,1.415722,1.200860,-2.134090
40000,-0.634463,0.462081,10.864887,1.324119,1.109257,-1.615006
44000,-0.646434,0.505177,10.884041,1.018775,0.971852,-1.248594
48000,-0.713472,0.414197,11.020511,1.049310,0.574905,-1.218060
52000,-0.756568,0.361524,11.173739,1.232516,-0.341125,-0.729510
56000,-0.890643,0.390255,11.348516,1.675264,-1.715171,-0.393632
60000,-0.849942,0.414197,11.441890,2.759233,-3.012881,0.446062
64000,-0.797269,0.363919,11.329363,3.766867,-3.715171,0.904078
68000,-0.742203,0.411803,11.233594,4.820302,-4.753339,1.636902
72000,-0.557849,0.337582,11.250354,5.308852,-5.577766,1.881177
76000,-0.428562,0.316035,11.152191,5.873737,-5.867843,2.049116
80000,-0.385466,0.304064,11.051635,5.782134,-6.386927,1.652169
84000,-0.332794,0.344765,11.022904,5.614195,-7.302957,1.407894
88000,-0.294487,0.368707,11.001357,5.858470,-8.142652,1.178887
92000,-0.304064,0.423774,10.783484,5.232516,-8.554866,0.919345
96000,-0.251391,0.428562,10.790668,4.850837,-7.944179,0.888810
100000,-0.277727,0.426168,10.670957,4.667631,-7.409827,0.720871
104000,-0.344765,0.438139,10.644621,4.514959,-6.295323,0.629268
108000,-0.385466,0.462081,10.579977,3.751600,-4.982347,0.705604
112000,-0.409408,0.433351,10.644621,3.217249,-4.035782,1.072016
116000,-0.407014,0.452504,10.608707,3.018775,-3.562499,1.255223
120000,-0.342371,0.476446,10.704475,2.728699,-3.043415,1.728505
124000,-0.402226,0.435745,10.620679,2.591295,-2.371660,1.789574
128000,-0.251391,0.459687,10.697293,2.545493,-1.944179,1.774307
132000,-0.205901,0.457293,10.690110,2.621829,-0.753339,1.713238
136000,-0.162806,0.462081,10.673351,2.377554,-0.066316,1.285757
140000,-0.129287,0.464475,10.706870,2.514959,0.330631,1.178887
144000,-0.158017,0.428562,10.656591,2.484425,0.605440,0.522398
148000,-0.177171,0.438139,10.807426,2.499691,0.452768,0.003314
152000,-0.287304,0.447716,10.783484,2.545493,0.025287,-0.286762
156000,-0.474052,0.478840,10.642226,2.255417,-0.585400,-0.347831
160000,-0.588974,0.553061,10.726024,1.889004,-2.615934,0.033849
164000,-0.634463,0.495600,10.759542,1.690531,-3.150285,0.629268
168000,-0.581791,0.560243,10.740389,1.537859,-3.867843,0.904078
172000,-0.392649,0.526724,10.836157,1.690531,-2.768606,1.209421
176000,-0.361524,0.533907,10.805033,1.568394,-0.738072,1.056749
180000,-0.459687,0.622492,10.833763,1.934806,0.651241,1.545299
184000,-0.574608,0.562637,11.130644,2.118012,-0.890743,2.079650
188000,-0.689530,0.562637,11.312603,2.911905,-3.730438,2.400261
192000,-0.517148,0.483629,11.154586,3.064577,-6.829675,2.751406
196000,-0.275333,0.430956,11.073183,2.927173,-7.867843,2.491864
200000,-0.256180,0.521936,11.125855,2.728699,-8.341125,2.446062
204000,-0.287304,0.531513,11.176133,2.652363,-9.318225,2.430795
208000,-0.287304,0.574608,11.180922,2.988241,-10.081584,2.339192
212000,-0.225055,0.565032,11.331757,3.766867,-10.570133,2.186520
216000,-0.282516,0.577003,11.257536,4.255417,-10.615934,2.217055
220000,-0.301669,0.548272,11.171345,4.377554,-9.989981,2.110184
224000,-0.418985,0.610521,11.106702,4.728699,-9.654102,2.522398
228000,-0.402226,0.658405,11.109096,4.942440,-9.944179,2.827742
232000,-0.457293,0.572214,11.080365,4.911905,-10.493797,2.705604
236000,-0.438139,0.667982,11.085154,5.308852,-11.348759,3.148352
240000,-0.440533,0.641646,11.008539,5.201982,-11.791507,3.133085
244000,-0.270545,0.727837,10.876859,5.034043,-12.035782,3.133085
248000,-0.169988,0.749385,10.754754,4.423356,-11.241889,2.965146
252000,-0.205901,0.794875,10.702082,3.721066,-9.898377,2.843009
256000,-0.251391,0.782904,10.809821,3.201982,-9.180820,2.430795
260000,-0.296881,0.842759,11.039664,3.018775,-9.211354,2.110184
264000,-0.402226,0.852336,10.994174,3.324119,-9.745706,2.094917
268000,-0.402226,0.916979,10.941502,3.247783,-9.608301,2.461329
272000,-0.356736,0.914585,10.884041,3.278317,-8.951813,2.446062
276000,-0.275333,0.974440,10.888829,3.385188,-7.501431,2.552932
280000,-0.263362,1.005565,10.831368,3.415722,-6.371659,2.262856
284000,-0.404620,1.058237,10.917560,3.339386,-6.585400,2.140719
288000,-0.521936,1.084573,10.910378,3.430989,-8.157919,2.491864
292000,-0.565032,1.168370,10.781090,3.201982,-9.058682,2.583467
296000,-0.521936,1.103727,10.630256,3.079844,-9.241889,2.766673
300000,-0.474052,1.199495,10.493786,2.087478,-8.600668,3.056749
304000,-0.603339,1.252167,10.503363,1.324119,-7.547232,3.530032
308000,-0.622492,1.410185,10.601525,0.484424,-7.119751,4.155986
312000,-0.538695,1.426944,10.632649,-0.340003,-7.302957,5.056749
316000,-0.418985,1.486799,10.644621,-0.752217,-7.333491,5.377360
320000,-0.217872,1.498770,10.840945,-0.935423,-6.493797,5.453696
324000,-0.112527,1.484405,10.989386,-0.889621,-5.455629,4.659803
328000,-0.064643,1.534683,11.070788,-0.553744,-4.127385,4.400261
332000,-0.047884,1.561020,11.027693,-0.324736,-2.188453,3.835375
336000,-0.117316,1.642422,11.149797,0.423356,-0.646469,2.995681
340000,-0.193930,1.702277,11.276690,1.140913,0.635974,3.102551
344000,-0.237026,1.817199,11.243171,1.751600,2.010020,2.919345
348000,-0.193930,1.845930,11.262324,2.163814,3.048188,2.690337
352000,-0.426168,1.836353,11.252748,2.316485,3.643608,2.522398
356000,-0.876278,1.862689,11.484985,2.118012,1.933684,2.934612
360000,-1.118092,1.826776,11.487380,1.889004,-1.348759,4.171253
364000,-1.022324,1.881842,11.461043,2.087478,-4.509064,5.621635
368000,-0.756568,1.968034,11.420342,2.224883,-5.822041,6.568200
372000,-0.639252,1.994370,11.511322,2.743967,-5.425095,6.888811
376000,-0.450110,2.114080,11.537658,3.965340,-4.051049,7.530032
380000,-0.442927,2.157176,11.506534,5.171447,-2.325858,7.591100
384000,-0.375890,2.293645,11.350910,6.545493,0.223760,7.804841
388000,-0.354342,2.291251,11.250354,7.507325,2.116890,7.835375
392000,-0.363919,2.341529,11.058818,8.285952,3.032921,8.293390
396000,-0.282516,2.422932,10.840945,8.072210,3.307730,8.247588
400000,-0.320823,2.525883,10.836157,8.026409,2.437501,7.865910
404000,-0.232238,2.573767,10.771513,7.614195,0.544371,7.850643
408000,-0.141258,2.600103,10.685322,7.125646,-1.547232,7.697971
412000,-0.155623,2.669535,10.426748,6.148546,-2.661736,7.468963
416000,-0.009577,2.652776,10.445902,5.843203,-3.226621,7.407895
420000,0.047884,2.703054,10.297462,5.904272,-2.753339,6.919345
424000,-0.131681,2.719813,10.237606,5.950073,-2.234255,6.537665
428000,-0.328006,2.664747,10.316615,5.995875,-2.432728,6.384994
432000,-0.466869,2.571373,10.180145,6.133279,-4.066316,6.614001
436000,-0.555455,2.461239,10.127473,5.369921,-4.890743,6.858276
440000,-0.375890,2.396596,10.072407,4.362287,-2.921278,7.163620
444000,-0.138864,2.243367,10.026917,3.446256,2.055821,6.644536
448000,-0.095768,1.991976,10.180145,2.377554,9.887882,5.789574
452000,-0.234632,1.896208,10.407595,1.430989,19.017653,5.178887
456000,-0.385466,1.778892,10.728417,0.469157,27.292461,5.148353
460000,-0.617704,1.738190,11.156980,0.347020,33.872616,5.102551
464000,-0.895431,1.838747,11.571177,0.347020,37.261929,6.003314
468000,-1.130063,1.845930,11.949461,0.805035,37.124523,6.965147
472000,-1.216254,1.812411,12.236765,1.553127,34.376431,7.926979
476000,-1.221043,1.884237,12.291832,2.530226,29.613073,8.522398
480000,-1.082179,1.874660,12.181698,4.133279,23.933683,9.209421
484000,-0.974440,1.898602,11.822568,5.186715,18.727577,9.239955
488000,-0.995988,2.035071,11.439496,5.308852,13.475668,9.438428
492000,-0.909797,2.059013,11.073183,5.110379,6.849715,9.560566
496000,-0.866701,2.001553,10.807426,3.889004,0.803913,9.423162
500000,-0.543484,1.953669,10.577583,2.270684,-3.043415,8.980413
504000,-0.335188,1.968034,10.299856,0.240150,-3.180820,8.018581
508000,-0.454898,1.929727,10.275913,-1.225499,-1.959446,7.881176
512000,-0.701501,1.865083,10.398018,-1.912522,-0.570133,8.384994
516000,-0.823605,1.857901,10.493786,-2.172064,0.376432,9.209421
520000,-1.051055,1.862689,10.381259,-1.851454,1.261928,10.247588
524000,-1.359907,1.905785,10.376471,-1.637713,-0.982347,11.865910
528000,-1.501164,1.821988,10.515334,-1.378171,-5.455629,13.911711
532000,-1.441309,1.860295,10.493786,-1.317102,-10.020514,15.682704
536000,-1.388637,1.917756,10.266336,-0.782751,-14.478530,17.041483
540000,-1.307234,1.944092,10.273520,-0.080461,-18.051048,18.079651
544000,-1.288081,1.900996,10.055647,0.820302,-20.768606,19.178886
548000,-1.352724,1.757344,9.938332,2.209615,-23.028149,20.171253
552000,-1.357512,1.728614,9.619903,3.568394,-23.394560,21.774307
556000,-1.130063,1.790863,9.370906,3.766867,-20.768606,23.163620
560000,-0.658405,1.802834,9.114726,4.056943,-13.577766,24.323925
564000,-0.349553,1.699883,9.160215,4.469157,-2.356392,24.995682
568000,-0.146046,1.618480,9.038112,5.446257,11.155058,25.377361
572000,-0.007183,1.640028,8.973468,6.224882,24.040554,25.926979
576000,0.119710,1.455675,8.908825,6.255417,35.277195,26.049116
580000,0.153229,1.323994,8.997410,5.995875,42.208492,25.835377
584000,0.258574,1.127669,8.999804,4.652363,43.124523,25.484230
588000,0.241814,0.960075,8.947132,2.530226,38.330631,24.339193
592000,0.227449,0.957681,8.889671,-0.675881,28.773378,22.919346
596000,0.328006,0.845153,8.815451,-4.675881,16.361164,20.995682
600000,0.433351,0.773327,8.643068,-8.736950,2.071089,18.186522
604000,0.395043,0.706290,8.444349,-13.149163,-12.020514,15.942245
608000,0.136469,0.687136,8.243237,-18.141529,-27.409828,13.133085
612000,-0.433351,0.481235,8.501810,-23.332369,-44.051048,11.453695
616000,-0.912191,0.306458,8.638280,-28.340004,-58.524330,10.904078
620000,-0.948104,0.107739,8.949526,-31.683514,-67.180817,11.010947
624000,-0.533907,-0.138864,8.870518,-35.179695,-63.699905,11.041482
628000,0.076614,-0.023942,9.315839,-35.988857,-46.203720,10.949879
632000,0.639252,-0.493206,9.964667,-34.630077,-19.272423,10.461329
636000,0.610521,-0.577003,10.718841,-31.591911,11.948951,10.949879
640000,0.426168,-0.483629,11.599907,-26.416338,39.628342,12.232322
644000,0.205901,-0.926556,12.603078,-20.446873,58.315365,13.285756
648000,-0.181959,-0.984017,13.285425,-14.599545,68.147430,15.148352
652000,-0.318429,-1.036689,13.546393,-9.240767,69.445137,16.354460
656000,-0.469264,-0.902614,13.405135,-4.507942,65.002388,17.377361
660000,-0.349553,-1.187524,13.299790,-0.141530,55.277195,17.056749
664000,-0.332794,-1.261744,12.890382,2.850837,42.498569,16.812475
668000,-0.162806,-1.096544,12.385205,4.545493,27.918417,16.033850
672000,-0.028730,-1.108515,11.678916,4.560760,13.628340,14.186520
676000,0.007183,-1.122881,10.984597,3.339386,0.116890,12.400260
680000,-0.201113,-1.168370,10.149021,0.484424,-11.180820,10.644535
684000,-0.466869,-1.070208,9.588778,-2.950690,-20.921278,10.461329
688000,-0.632069,-1.228225,9.203311,-7.393438,-27.974712,10.033848
692000,-0.814029,-0.979228,8.810662,-12.920156,-32.447994,10.400260
696000,-0.689530,-0.909797,8.877700,-17.347635,-33.043415,9.942245
700000,-0.766145,-1.082179,9.057265,-21.011759,-31.455629,9.514764
704000,-0.943315,-1.221043,9.344569,-23.698780,-28.982347,10.110184
708000,-1.051055,-1.563414,9.859323,-25.500307,-26.203720,10.644535
712000,-1.031901,-1.687912,10.369287,-25.805651,-22.035782,11.743772
716000,-1.012747,-1.606509,10.814610,-25.194963,-16.005247,13.102551
720000,-0.814029,-1.410185,11.231200,-23.423971,-8.142652,15.102551
724000,-1.790863,-2.659958,16.254236,16.805035,-10.677003,26.430796
728000,-0.644040,-1.788469,9.126697,-0.248400,10.071088,21.835377
732000,1.793257,-0.754174,10.110714,-5.683515,33.643608,23.896444
736000,1.256956,-1.874660,10.888829,-6.034659,58.956585,19.194155
740000,0.572214,-1.920150,10.749966,-9.637713,62.971851,16.873545
744000,-0.165200,-1.872266,11.197681,-12.599545,56.254295,15.972779
748000,-0.457293,-2.075773,11.987768,-12.965957,38.910782,16.217054
752000,0.071826,-1.941698,12.006922,-12.355271,25.567272,16.629269
756000,0.636858,-1.831564,11.791444,-12.034659,13.689409,14.461329
760000,1.036689,-1.843535,11.113884,-14.080461,8.345898,11.926978
764000,1.039083,-1.896208,11.070788,-16.309467,5.338264,8.980413
768000,0.943315,-1.941698,11.353305,-17.256033,2.620707,6.155986
772000,0.924162,-1.697489,11.528081,-17.149162,-0.035782,3.667437
776000,0.610521,-1.695095,11.896789,-15.973592,-3.898377,1.514765
780000,0.234632,-1.740585,11.930307,-13.118629,-7.379293,-0.347831
784000,-0.110133,-1.845930,11.769896,-9.927790,-10.341125,-1.355464
788000,-0.373495,-1.731008,11.247959,-7.454507,-10.753339,-1.752411
792000,-0.596156,-1.826776,10.814610,-5.744583,-8.951813,-2.454701
796000,-0.907402,-1.745373,10.493786,-4.874354,-5.608301,-2.057755
800000,-1.115698,-1.707066,10.395624,-5.286569,-2.341125,-1.538671
804000,-1.130063,-1.726219,10.149021,-7.164431,0.132157,-0.408900
808000,-1.185130,-1.726219,10.235212,-8.950690,1.475669,0.644536
812000,-1.343147,-1.685518,10.235212,-11.607179,1.261928,2.583467
816000,-1.244985,-1.628057,10.249578,-15.256034,-0.783873,4.384994
820000,-1.005565,-1.697489,10.524911,-18.492674,-3.119751,5.774307
824000,-0.840365,-1.647211,10.884041,-21.072826,-5.318224,6.552933
828000,-0.746991,-1.692701,11.240777,-22.691147,-7.073949,6.110185
832000,-0.639252,-1.671153,11.444284,-22.920155,-7.760972,5.621635
836000,-0.667982,-1.529895,11.736377,-22.385803,-7.516697,5.209421
840000,-0.521936,-1.472434,11.858481,-20.859087,-5.531965,4.965147
844000,-0.373495,-1.484405,12.198458,-19.301834,-2.264789,4.552933
848000,-0.217872,-1.527501,12.667721,-16.782751,0.071089,4.262856
852000,-0.270545,-1.448492,13.034034,-13.668248,0.941318,4.400261
856000,-0.229843,-1.355118,13.204022,-10.217866,-0.096850,4.247589
860000,-0.208296,-1.429338,13.376405,-6.660614,-2.814408,4.262856
864000,-0.153229,-1.343147,13.199234,-3.393438,-5.043415,3.652169
868000,-0.126893,-1.333570,12.885593,-0.309469,-6.341125,2.904078
872000,-0.234632,-1.347936,12.641385,1.766867,-8.371659,2.583467
876000,-0.296881,-1.307234,12.457031,3.827936,-11.226622,2.415528
880000,-0.402226,-1.333570,12.231977,4.942440,-15.822042,1.789574
884000,-0.423774,-1.304840,12.121843,5.537859,-20.814407,1.591100
888000,-0.296881,-1.192312,11.947066,5.217249,-24.936544,1.270490
892000,-0.272939,-1.101333,11.815386,4.087478,-27.715172,0.400261
896000,-0.184354,-1.130063,11.798626,3.889004,-28.936544,-0.622640
900000,-0.143652,-1.048660,11.722012,3.385188,-26.906012,-1.370732
904000,-0.110133,-1.015141,11.688493,3.156180,-21.455629,-2.317297
908000,-0.105345,-1.003170,11.705252,3.659997,-14.035782,-3.034854
912000,-0.181959,-0.931344,11.798626,5.140913,-5.745705,-3.172258
916000,-0.222661,-0.957681,11.942278,7.018775,1.093989,-3.263861
920000,-0.222661,-0.866701,11.980585,9.507325,6.498569,-3.187526
924000,-0.246603,-0.861913,11.733982,11.247784,8.987119,-3.324930
928000,-0.193930,-0.770933,11.566388,12.133279,9.216126,-3.584472
932000,-0.234632,-0.732626,11.410766,12.118012,6.483303,-3.966152
936000,-0.287304,-0.916979,11.099519,10.316485,2.361165,-4.531037
940000,-0.359130,-0.577003,11.027693,10.957706,-2.982346,-4.927983
944000,-0.002394,-0.660800,10.637438,7.507325,-6.860209,-6.317297
948000,-0.548272,-0.519542,10.678140,6.866104,-9.913645,-5.752411
952000,-0.423774,-0.454898,10.670957,5.919539,-11.715171,-5.538671
956000,-0.181959,-0.165200,10.395624,3.873737,-11.623569,-5.798213
960000,-0.129287,-0.308852,10.541670,2.911905,-8.783874,-6.103556
964000,-0.153229,-0.373495,10.687716,3.369921,-5.455629,-6.866915
968000,-0.349553,-0.320823,10.680533,3.339386,-3.470896,-7.370731
972000,-0.545878,-0.090980,10.618284,3.965340,-1.974713,-6.439434
976000,-0.562637,-0.105345,10.362105,3.568394,-1.043415,-6.164625
980000,-0.629675,0.045490,10.199299,2.316485,0.361165,-5.599739
984000,-0.675165,-0.189142,10.374076,1.110379,0.162692,-6.195159
988000,-0.799663,-0.062249,10.405201,-0.355270,-1.364026,-6.210426
992000,-1.086968,-0.282516,10.680533,-1.485041,-5.150285,-5.966151
996000,-1.515530,-0.124498,10.963050,-1.500308,-10.417461,-4.103556
1000000,-1.446098,0.028730,10.793061,-3.576644,-15.455629,-2.027220
1004000,-1.003170,-0.100556,10.970232,-5.347637,-16.783875,-1.248594
1008000,-0.842759,-0.354342,11.343728,-4.034659,-14.997614,-0.408900
1012000,-0.732626,-0.260968,11.255142,-2.523209,-12.035782,-0.103556
1016000,-0.715866,-0.198719,11.255142,-1.347636,-7.959445,0.736139
1020000,-0.665588,-0.184354,11.461043,0.072211,-2.600667,1.560566
1024000,-0.409408,-0.193930,11.338940,1.171447,2.666508,1.820108
1028000,-0.208296,-0.203507,11.355699,2.011142,7.964219,1.087284
1032000,-0.387861,-0.342371,11.477803,3.904272,9.811546,0.827742
1036000,-0.493206,-0.301669,11.468226,5.446257,8.559638,1.697971
1040000,-0.440533,-0.110133,11.252748,6.026409,6.406967,2.476597
1044000,-0.289698,-0.062249,11.252748,6.301218,3.979486,2.186520
1048000,-0.059855,-0.210690,10.991780,6.056943,3.017654,1.194154
1052000,-0.196325,-0.246603,10.781090,5.461524,1.765745,0.583467
1056000,-0.385466,-0.253785,10.596737,4.698165,0.208493,0.491864
1060000,-0.383072,-0.289698,10.625467,3.965340,-1.425095,0.491864
1064000,-0.275333,-0.282516,10.510546,3.492058,-1.516698,0.904078
1068000,0.007183,-0.335188,10.474632,2.988241,-0.402194,0.873543
1072000,0.162806,-0.289698,10.412383,1.873737,2.926050,0.522398
1076000,0.344765,-0.289698,10.510546,0.789768,6.620707,-0.347831
1080000,0.433351,-0.409408,10.512939,0.087478,9.811546,-1.691342
1084000,0.299275,-0.383072,10.656591,-0.416339,11.597806,-2.592106
1088000,0.191536,-0.438139,10.821792,-0.996492,11.490935,-3.126457
1092000,0.055067,-0.335188,11.070788,-1.072828,10.361164,-3.553938
1096000,-0.016759,-0.335188,11.274296,-0.416339,8.406966,-4.332564
1100000,-0.117316,-0.342371,11.341333,0.133279,6.468035,-5.172258
1104000,-0.397437,-0.332794,11.379641,0.942440,5.307730,-5.401266
1108000,-0.474052,-0.337582,11.326968,1.751600,4.758111,-5.477602
1112000,-0.586579,-0.258574,11.219229,2.743967,4.559639,-5.050121
1116000,-0.696713,-0.179565,11.128249,3.889004,4.758111,-4.332564
1120000,-0.687136,-0.110133,11.003751,4.118012,5.460402,-3.935617
1124000,-0.866701,0.021548,10.814610,4.255417,6.010020,-3.340197
1128000,-0.761356,-0.138864,10.493786,3.995875,6.834447,-3.141724
1132000,-0.859518,0.004788,10.223241,3.186715,8.269562,-2.668442
1136000,-0.833182,0.011971,10.139444,1.889004,8.788646,-2.088289
1140000,-0.847547,0.105345,10.208876,0.179081,8.116890,-1.905083
1144000,-0.881066,0.004788,10.359711,-0.691148,5.552005,-1.416533
1148000,-0.878672,0.004788,10.486604,-2.141530,1.964218,-1.355464
1152000,-0.790087,0.019154,10.647015,-2.752217,-0.829675,-1.447067
1156000,-0.770933,-0.021548,10.685322,-2.920156,-2.722805,-1.996686
1160000,-0.845153,0.014365,10.726024,-2.614812,-4.264789,-1.584472
1164000,-0.924162,-0.064643,10.723629,-2.889621,-4.341125,-1.156991
1168000,-0.921768,-0.076614,10.805033,-2.034660,-3.593034,0.171253
1172000,-0.847547,-0.119710,11.013328,-1.393438,-2.738072,0.690337
1176000,-0.610521,-0.086191,11.027693,-1.210232,-1.394560,0.965146
1180000,-0.497994,-0.119710,11.099519,-0.920156,-0.051049,1.041482
1184000,-0.579397,-0.098162,11.231200,-0.324736,1.139791,0.736139
1188000,-0.639252,0.028730,11.267113,0.301218,1.292463,0.384994
1192000,-0.725443,-0.071826,11.233594,0.316485,0.132157,-0.164625
1196000,-0.852336,-0.088585,11.219229,0.362287,-1.486163,0.720871
1200000,-0.993594,-0.246603,11.319786,0.759233,-4.127385,1.087284
1204000,-0.952892,-0.246603,11.420342,1.568394,-6.677003,1.346826
1208000,-0.711078,-0.220267,11.295844,1.797401,-8.325858,1.545299
1212000,-0.763750,-0.203507,11.314998,2.148547,-8.906011,1.652169
1216000,-0.634463,-0.363919,11.281479,3.156180,-7.486163,1.682703
1220000,-0.363919,-0.277727,11.034876,3.263050,-5.272423,1.239955
1224000,-0.363919,-0.349553,11.125855,3.904272,-1.501431,1.591100
1228000,-0.179565,-0.390255,10.955867,4.591295,2.086356,1.407894
1232000,-0.052672,-0.258574,10.953473,4.667631,4.895516,1.713238
1236000,0.000000,-0.387861,11.001357,4.911905,6.819180,0.904078
1240000,0.114922,-0.320823,10.982203,4.911905,7.445135,0.079650
1244000,0.124498,-0.339977,10.838552,4.682898,6.483303,-0.698976
1248000,0.129287,-0.342371,10.819398,4.163814,5.353531,-1.553938
1252000,0.134075,-0.416591,10.934319,3.766867,3.216127,-2.851648
1256000,0.014365,-0.414197,10.917560,4.026409,1.032921,-3.599739
1260000,-0.220267,-0.339977,10.891224,3.950073,-1.318224,-4.302029
1264000,-0.093374,-0.313640,10.807426,3.873737,-2.493797,-4.683709
1268000,-0.174777,-0.280122,10.797850,4.423356,-3.547232,-4.821113
1272000,-0.284910,-0.282516,10.608707,4.499691,-3.440362,-5.340197
1276000,-0.335188,-0.284910,10.546458,4.408089,-1.852576,-5.615006
1280000,-0.533907,-0.287304,10.529699,4.148547,-0.829675,-5.401266
1284000,-0.706290,-0.213084,10.625467,3.995875,-0.035782,-5.385999
1288000,-0.778116,-0.203507,10.584765,4.362287,-0.677003,-4.592105
1292000,-0.792481,-0.174777,10.548853,3.950073,-0.692270,-3.905083
1296000,-0.581791,-0.117316,10.563218,3.492058,-0.234255,-3.447068
1300000,-0.550666,-0.124498,10.522516,3.064577,0.910783,-3.431800
1304000,-0.526724,-0.136469,10.529699,2.270684,1.460402,-3.370732
1308000,-0.653617,-0.162806,10.584765,1.339386,1.796279,-3.431800
1312000,-0.756568,-0.284910,10.661380,0.789768,1.032921,-3.309663
1316000,-0.809240,-0.268151,10.757148,0.423356,0.254295,-2.943251
1320000,-0.672771,-0.090980,10.745177,0.255417,-0.402194,-2.775312
1324000,-0.653617,-0.071826,10.761936,-0.172064,-0.417461,-2.790579
1328000,-0.715866,-0.057461,10.886436,-0.126262,0.025287,-2.790579
1332000,-0.857124,-0.052672,10.972627,0.179081,-0.203721,-2.714243
1336000,-1.034295,-0.100556,11.046846,0.682898,-1.608301,-2.317297
1340000,-1.077391,-0.076614,11.125855,1.095111,-3.562499,-1.431800
1344000,-0.976834,-0.076614,10.955867,1.446256,-5.394560,-0.683709
1348000,-0.909797,0.016759,10.800244,1.583661,-6.478529,-0.225693
1352000,-0.811634,-0.119710,10.754754,1.369921,-7.440361,0.262856
1356000,-0.605733,-0.026336,10.642226,0.408088,-7.913644,0.247589
1360000,-0.598550,-0.081403,10.553641,-0.126262,-8.921278,-0.195159
1364000,-0.555455,-0.050278,10.618284,-1.042293,-10.112118,-0.332564
1368000,-0.380678,-0.081403,10.469844,-2.187331,-9.226622,-0.347831
1372000,-0.184354,-0.131681,10.402806,-2.950690,-6.356392,-0.836380
1376000,-0.222661,-0.215478,10.345345,-3.866720,-3.226621,-0.973785
1380000,-0.332794,-0.210690,10.553641,-3.729316,-1.501431,-1.141724
1384000,-0.284910,-0.349553,10.723629,-4.095729,-0.218988,-1.462335
1388000,-0.433351,-0.402226,11.054029,-3.469774,-0.066316,-1.676075
1392000,-0.447716,-0.411803,11.192893,-2.156797,-0.982347,-1.706609
1396000,-0.354342,-0.246603,11.219229,-1.378171,-1.089217,-1.385999
1400000,-0.351948,-0.239420,11.317391,-0.553744,-0.417461,-1.233327
1404000,-0.328006,-0.289698,11.417948,0.316485,1.261928,-1.676075
1408000,-0.519542,-0.347159,11.326968,1.537859,2.055821,-1.844014
1412000,-0.723049,-0.296881,11.255142,2.148547,2.071089,-1.950884
1416000,-0.943315,-0.301669,11.145009,3.003508,1.017653,-0.821113
1420000,-0.818817,-0.342371,11.087548,2.728699,0.025287,-0.225693
1424000,-0.691924,-0.265756,10.943896,2.316485,-0.860209,0.384994
1428000,-0.577003,-0.227449,10.941502,1.919539,-1.791507,0.629268
1432000,-0.490811,-0.253785,10.943896,0.972974,-2.493797,0.705604
1436000,-0.426168,-0.225055,11.027693,0.530226,-3.043415,0.522398
1440000,-0.426168,-0.304064,11.212047,-0.065194,-4.692270,-0.164625
1444000,-0.538695,-0.296881,11.487380,0.377554,-7.180820,-0.317297
1448000,-0.514753,-0.356736,11.530476,1.430989,-10.096850,-0.408900
1452000,-0.502782,-0.301669,11.489774,1.934806,-11.883110,-0.760045
1456000,-0.385466,-0.294487,11.506534,3.049310,-12.310591,-0.973785
1460000,-0.581791,-0.282516,11.499351,4.331753,-12.249522,-1.156991
1464000,-0.763750,-0.342371,11.592725,5.293585,-12.447996,-0.897449
1468000,-0.809240,-0.320823,11.523293,6.423356,-12.615934,-0.363098
1472000,-0.857124,-0.337582,11.391612,7.308852,-12.432729,0.354459
1476000,-0.653617,-0.289698,11.322180,8.056944,-10.936545,1.316291
1480000,-0.462081,-0.337582,11.142614,8.728700,-8.814408,1.545299
1484000,-0.268151,-0.323217,11.111490,9.201982,-6.081583,1.530032
1488000,-0.186748,-0.186748,11.010934,10.011142,-4.356392,1.545299
1492000,-0.064643,-0.222661,11.044453,10.133280,-3.699904,1.194154
1496000,0.086191,-0.138864,10.941502,10.652364,-3.012881,0.675070
1500000,0.292093,-0.134075,10.757148,10.896638,-0.539598,-0.469968
1504000,0.371101,-0.172383,10.615891,10.728700,1.811547,-1.660808
1508000,0.294487,-0.117316,10.479421,10.606562,4.254295,-3.019587
1512000,0.079009,-0.083797,10.484209,10.255417,4.910783,-3.767678
1516000,-0.095768,-0.028730,10.529699,9.644730,3.964219,-4.347831
1520000,-0.186748,-0.016759,10.374076,8.056944,1.887883,-5.019587
1524000,-0.320823,0.040701,10.177752,5.308852,0.345898,-5.492869
1528000,-0.521936,-0.033519,10.316615,3.400455,-0.753339,-6.164625
1532000,-0.701501,-0.100556,10.433931,1.812669,-1.302957,-6.302029
1536000,-1.022324,-0.114922,10.524911,0.957707,-1.883110,-5.462335
1540000,-1.194707,-0.117316,10.809821,0.789768,-2.341125,-4.561571
1544000,-1.228225,-0.074220,10.867282,1.034043,-2.921278,-2.989052
1548000,-1.101333,-0.011971,10.965444,1.751600,-2.692270,-1.996686
1552000,-1.036689,-0.062249,10.869676,2.377554,-2.157919,-1.263861
1556000,-0.945710,-0.028730,10.831368,2.285951,-1.165553,-0.637907
1560000,-0.873884,-0.124498,10.757148,2.270684,-0.692270,0.125452
1564000,-0.869095,-0.071826,10.809821,1.873737,-0.906011,0.552933
1568000,-0.665588,-0.105345,10.716447,1.705798,-0.875476,0.949879
1572000,-0.591368,-0.074220,10.773908,1.385188,-0.997614,1.133085
1576000,-0.507571,-0.055067,10.749966,1.156180,-0.753339,1.087284
1580000,-0.414197,-0.043096,10.730812,0.942440,0.193226,1.010948
1584000,-0.325611,-0.031125,10.723629,0.866104,1.322997,0.675070
1588000,-0.320823,-0.112527,10.661380,0.499691,2.758112,0.614001
1592000,-0.423774,-0.105345,10.776301,0.179081,3.582539,0.018581
1596000,-0.572214,-0.086191,10.860099,-0.034660,2.941318,-0.118823
1600000,-0.679953,-0.052672,11.027693,-0.355270,0.177959,-0.225693
1604000,-0.768539,0.000000,11.319786,-0.141530,-3.883110,-0.149358
1608000,-0.658405,-0.112527,11.331757,0.438623,-7.364026,-0.042487
1612000,-0.548272,-0.098162,11.168951,1.247783,-8.982347,-0.240961
1616000,-0.435745,-0.181959,11.085154,1.965340,-8.325858,-0.393632
1620000,-0.502782,-0.189142,10.896012,2.728699,-7.318224,-0.393632
1624000,-0.557849,-0.189142,10.826580,2.896638,-6.539598,-0.057755
1628000,-0.553061,-0.158017,10.716447,2.499691,-6.875476,0.522398
1632000,-0.545878,-0.076614,10.623073,1.507325,-8.386927,0.644536
1636000,-0.464475,-0.201113,10.687716,0.362287,-10.539598,0.812474
1640000,-0.428562,-0.232238,10.692505,-0.721682,-11.974713,0.323925
1644000,-0.282516,-0.222661,10.735600,-1.714049,-12.371660,0.278123
1648000,-0.177171,-0.313640,10.857705,-2.340003,-11.287690,0.125452
1652000,-0.253785,-0.280122,11.039664,-2.141530,-9.623569,-0.164625
1656000,-0.179565,-0.339977,11.207258,-1.454507,-7.547232,-0.179892
1660000,-0.167594,-0.299275,11.286267,-0.126262,-5.211354,-0.500503
1664000,-0.138864,-0.256180,11.374852,0.927172,-2.814408,-0.607373
1668000,-0.052672,-0.193930,11.307815,2.530226,-0.005247,-0.851648
1672000,-0.160412,-0.222661,11.303026,3.705798,1.338264,-0.989052
1676000,-0.308852,-0.270545,11.322180,4.698165,1.475669,-0.989052
1680000,-0.342371,-0.294487,11.422736,5.125646,0.361165,-0.744777
1684000,-0.375890,-0.280122,11.310209,5.385188,-2.264789,-0.469968
1688000,-0.447716,-0.265756,11.377247,5.125646,-4.554865,-0.485235
1692000,-0.395043,-0.270545,11.492168,5.430989,-6.707537,-0.851648
1696000,-0.442927,-0.198719,11.398794,6.148546,-7.822041,-0.714243
1700000,-0.385466,-0.253785,11.377247,7.354653,-7.379293,-0.683709
1704000,-0.193930,-0.205901,11.250354,8.377554,-4.768606,-0.836380
1708000,-0.095768,-0.239420,11.089942,9.858470,-1.486163,-0.989052
1712000,-0.050278,-0.019154,10.958261,10.285952,1.552005,-1.050121
1716000,0.095768,0.117316,10.491392,7.873737,4.651241,-1.660808
1720000,0.045490,-0.076614,10.575189,5.751600,5.429867,-2.622640
1724000,-0.366313,-0.241814,10.685322,4.881371,2.666508,-3.141724
1728000,-0.603339,-0.323217,10.733206,4.041677,-2.997614,-2.744777
1732000,-0.512359,-0.203507,10.721235,3.354653,-7.318224,-2.439434
1736000,-0.241814,-0.193930,10.817003,3.049310,-9.073950,-2.500503
1740000,-0.031125,-0.110133,10.876859,3.064577,-8.005247,-3.156991
1744000,-0.057461,-0.052672,10.807426,2.942440,-5.684637,-3.966152
1748000,-0.225055,-0.043096,10.802638,2.698165,-3.898377,-4.500503
1752000,-0.423774,-0.169988,10.967838,3.156180,-2.783873,-4.561571
1756000,-0.598550,-0.158017,10.998962,3.690531,-2.738072,-4.454701
1760000,-0.667982,-0.045490,10.963050,4.041677,-3.501430,-4.271495
1764000,-0.639252,-0.148441,10.893618,4.820302,-3.470896,-3.920350
1768000,-0.560243,-0.124498,10.805033,5.293585,-2.371660,-3.523403
1772000,-0.598550,-0.076614,10.584765,5.217249,-0.356392,-3.004319
1776000,-0.579397,-0.083797,10.615891,4.637096,0.681776,-2.317297
1780000,-0.593762,-0.028730,10.647015,4.194348,0.681776,-1.676075
1784000,-0.481235,-0.146046,10.675745,3.812669,-0.188453,-1.645541
1788000,-0.284910,-0.134075,10.630256,2.850837,-1.241889,-1.706609
1792000,-0.227449,-0.150835,10.594342,2.423356,-1.944179,-2.195159
1796000,-0.129287,-0.143652,10.678140,1.812669,-2.463263,-2.897449
1800000,-0.107739,-0.074220,10.690110,1.232516,-2.173186,-3.508136
1804000,-0.167594,-0.079009,10.658986,0.988241,-1.928911,-4.118823
1808000,-0.387861,-0.052672,10.752359,1.018775,-1.776240,-4.607373
1812000,-0.706290,-0.067038,10.967838,0.637096,-3.715171,-4.439434
1816000,-0.696713,0.081403,10.996569,0.942440,-4.921278,-3.920350
1820000,-0.766145,0.076614,11.097125,1.095111,-5.226621,-3.584472
1824000,-0.799663,0.059855,11.046846,1.721066,-5.409827,-2.943251
1828000,-0.780510,0.009577,11.173739,2.255417,-5.119751,-2.042487
1832000,-0.804452,0.033519,11.034876,2.927173,-5.211354,-1.340197
1836000,-0.715866,0.079009,11.104307,3.492058,-4.600667,-0.729510
1840000,-0.787692,0.093374,10.972627,3.904272,-4.615934,-0.760045
1844000,-0.758962,0.031125,11.044453,4.224883,-5.135018,-0.683709
1848000,-0.718261,-0.014365,10.927136,4.362287,-4.661736,-0.790579
1852000,-0.682347,-0.023942,10.793061,4.331753,-4.402194,-0.744777
1856000,-0.581791,-0.043096,10.721235,4.270684,-3.302957,-0.729510
1860000,-0.536301,-0.052672,10.735600,3.812669,-2.478530,-0.790579
1864000,-0.517148,-0.083797,10.716447,3.308852,-1.898377,-0.531037
1868000,-0.438139,-0.179565,10.757148,2.820302,-1.852576,-0.240961
1872000,-0.387861,-0.119710,10.860099,2.209615,-1.928911,-0.347831
1876000,-0.349553,-0.105345,10.872070,1.766867,-1.531965,-0.653174
1880000,-0.232238,-0.112527,10.979809,1.965340,-0.218988,-1.004319
1884000,-0.208296,-0.090980,11.054029,2.224883,1.597806,-1.569205
1888000,-0.335188,-0.071826,11.156980,3.186715,3.032921,-1.660808
1892000,-0.299275,-0.095768,11.130644,4.270684,3.842081,-1.889816
1896000,-0.454898,-0.038307,11.128249,5.125646,3.597806,-1.844014
1900000,-0.445322,-0.076614,11.080365,5.705799,1.781012,-1.844014
1904000,-0.617704,0.011971,11.042058,5.644730,-1.776240,-2.103556
1908000,-0.648829,-0.028730,10.843340,5.171447,-5.913644,-1.950884
1912000,-0.627281,0.007183,10.723629,4.224883,-9.837309,-1.996686
1916000,-0.519542,0.002394,10.546458,3.568394,-11.883110,-1.935617
1920000,-0.450110,0.019154,10.386047,2.362287,-12.417461,-2.073022
1924000,-0.560243,-0.009577,10.321404,1.217249,-12.188454,-1.935617
1928000,-0.524330,-0.045490,10.381259,0.179081,-11.989981,-1.615006
1932000,-0.337582,-0.090980,10.510546,-0.385804,-11.425095,-0.943251
1936000,-0.299275,-0.165200,10.620679,-0.767484,-9.913645,-0.698976
1940000,-0.241814,-0.148441,10.745177,-0.446873,-8.478530,-0.943251
1944000,-0.237026,-0.126893,10.903194,-0.019392,-7.150285,-0.607373
1948000,-0.191536,-0.090980,11.080365,0.514959,-6.493797,-0.424167
1952000,-0.179565,-0.117316,11.085154,1.064577,-5.730438,-0.775312
1956000,-0.143652,-0.069432,11.161768,1.263050,-4.814407,-0.943251
1960000,-0.131681,-0.126893,11.101913,1.797401,-4.249522,-1.187526
1964000,-0.083797,-0.100556,11.173739,2.377554,-3.226621,-1.553938
1968000,-0.208296,-0.067038,11.212047,2.927173,-2.371660,-1.767678
1972000,-0.306458,-0.134075,11.149797,3.354653,-1.684637,-1.981419
1976000,-0.371101,-0.079009,11.106702,3.797401,-1.577766,-1.706609
1980000,-0.354342,-0.009577,11.058818,4.087478,-1.364026,-1.309663
1984000,-0.335188,-0.059855,11.051635,3.721066,-1.608301,-1.080655
1988000,-0.284910,-0.100556,10.996569,3.873737,-1.379293,-0.805846
1992000,-0.258574,-0.162806,11.015722,3.629463,-1.608301,-0.561571
1996000,-0.268151,-0.098162,11.066000,3.568394,-2.005247,-1.004319
