time_us,ax,ay,az,gx,gy,gz
0,0.129287,0.359130,10.910378,1.690531,-2.020514,-3.996686
4000,0.112527,0.380678,10.879252,1.568394,-1.928911,-4.195159
8000,0.062249,0.385466,10.972627,1.553127,-0.936545,-4.378365
12000,-0.043096,0.404620,10.910378,1.446256,-0.203721,-4.393632
16000,-0.081403,0.428562,10.989386,1.430989,1.078722,-4.439434
20000,-0.349553,0.481235,10.931925,1.675264,1.521470,-3.752411
24000,-0.423774,0.471658,11.046846,1.766867,0.803913,-2.592106
28000,-0.292093,0.409408,11.111490,2.224883,0.025287,-1.996686
32000,-0.184354,0.371101,11.051635,2.591295,0.010020,-1.767678
36000,-0.143652,0.411803,11.037270,2.621829,-0.035782,-1.813480
40000,-0.193930,0.457293,10.989386,2.514959,-0.997614,-1.706609
44000,-0.277727,0.459687,10.819398,2.591295,-2.356392,-1.752411
48000,-0.265756,0.517148,10.761936,2.423356,-3.043415,-1.676075
52000,-0.289698,0.486023,10.721235,1.782134,-3.073950,-1.385999
56000,-0.284910,0.514753,10.599131,1.522592,-2.677003,-1.233327
60000,-0.323217,0.636858,10.649409,0.957707,-2.066316,-1.065388
64000,-0.380678,0.591368,10.704475,0.652363,-2.341125,-0.531037
68000,-0.371101,0.574608,10.860099,0.331753,-2.722805,0.186520
72000,-0.337582,0.584185,10.860099,0.362287,-3.012881,0.675070
76000,-0.196325,0.541090,10.809821,0.148546,-2.783873,0.873543
80000,-0.138864,0.577003,10.817003,-0.095728,-1.944179,0.995681
84000,0.014365,0.507571,10.778696,-0.187331,-1.257156,1.087284
88000,0.090980,0.433351,10.821792,-0.721682,-0.585400,0.965146
92000,0.093374,0.442927,10.891224,-1.118629,-0.386927,0.705604
96000,0.064643,0.464475,10.977415,-1.057560,-0.432728,0.659803
100000,-0.021548,0.507571,11.070788,-1.256034,-1.531965,0.720871
104000,0.052672,0.385466,11.281479,-1.088094,-1.898377,1.026215
108000,0.090980,0.375890,11.271901,-0.645346,-2.234255,1.178887
112000,0.172383,0.373495,11.410766,-0.004125,-1.898377,1.285757
116000,0.150835,0.399832,11.338940,0.576027,-1.531965,1.194154
120000,0.155623,0.356736,11.274296,1.415722,-0.921278,1.041482
124000,0.160412,0.368707,11.164163,1.492058,-0.035782,1.148352
128000,0.023942,0.392649,10.979809,1.247783,0.666508,1.331558
132000,0.107739,0.402226,11.092337,1.064577,0.895516,1.453696
136000,0.141258,0.368707,11.142614,0.957707,1.200860,1.163620
140000,0.050278,0.337582,11.116279,0.942440,1.200860,1.194154
144000,-0.100556,0.414197,11.049241,1.034043,1.277195,1.163620
148000,-0.320823,0.330400,11.130644,0.850837,0.376432,2.018581
152000,-0.227449,0.339977,11.259931,0.988241,-0.554866,2.827742
156000,-0.155623,0.385466,11.252748,1.095111,-0.814408,3.392627
160000,-0.023942,0.356736,11.180922,1.339386,-0.264789,3.713238
164000,-0.067038,0.342371,11.329363,1.889004,-0.066316,3.728505
168000,-0.045490,0.330400,11.300632,2.667631,-0.188453,4.217055
172000,0.122104,0.347159,11.324574,3.598928,-0.570133,4.384994
176000,0.318429,0.423774,11.295844,4.499691,-0.463263,4.339192
180000,0.390255,0.366313,11.133038,5.522593,0.040554,3.835375
184000,0.421380,0.371101,10.979809,5.873737,-0.173186,3.407894
188000,0.430956,0.402226,10.793061,5.644730,-0.570133,2.858276
192000,0.495600,0.306458,10.692505,5.827936,-0.906011,2.491864
196000,0.567426,0.426168,10.532093,4.224883,-0.814408,2.033848
200000,0.433351,0.450110,10.445902,3.217249,-0.509064,1.407894
204000,0.270545,0.402226,10.690110,2.316485,-0.982347,1.133085
208000,0.134075,0.397437,10.884041,1.827936,-3.012881,1.209421
212000,0.167594,0.361524,11.006145,1.461524,-5.135018,1.484230
216000,0.179565,0.421380,10.929531,1.247783,-6.096850,1.545299
220000,0.330400,0.339977,11.003751,1.171447,-6.173186,1.331558
224000,0.318429,0.354342,11.077971,1.415722,-5.654102,0.949879
228000,0.325611,0.383072,11.142614,2.133279,-5.150285,0.583467
232000,0.270545,0.361524,11.137826,2.957707,-4.173186,0.400261
236000,0.284910,0.339977,11.061212,3.492058,-3.272423,0.201787
240000,0.193930,0.371101,10.929531,3.980608,-2.447995,0.140719
244000,0.179565,0.304064,10.953473,4.011142,-1.318224,0.018581
248000,0.129287,0.387861,10.982203,3.736333,-0.921278,-0.210426
252000,-0.011971,0.380678,10.955867,3.461524,-0.799140,-0.057755
256000,-0.014365,0.339977,11.042058,3.293585,-0.524331,-0.256228
260000,0.002394,0.371101,11.121067,3.095111,-0.371659,-0.118823
264000,-0.129287,0.332794,11.231200,3.583661,-0.341125,0.232322
268000,-0.059855,0.409408,11.082760,4.072211,0.040554,0.140719
272000,-0.079009,0.418985,11.020511,4.637096,0.315363,0.461329
276000,-0.136469,0.426168,11.027693,5.278317,0.635974,0.537665
280000,-0.232238,0.442927,11.032481,5.782134,0.055821,0.919345
284000,-0.174777,0.428562,10.874464,5.965341,-1.150285,1.133085
288000,-0.055067,0.445322,10.632649,5.995875,-1.852576,1.194154
292000,0.045490,0.478840,10.532093,5.079844,-1.883110,0.995681
296000,0.112527,0.545878,10.431537,4.179081,-1.745705,0.827742
300000,0.045490,0.565032,10.529699,3.308852,-1.593034,0.812474
304000,-0.076614,0.543484,10.625467,2.453890,-1.867843,0.614001
308000,-0.112527,0.536301,10.735600,1.934806,-1.913644,1.072016
312000,-0.074220,0.507571,10.785878,1.827936,-1.593034,1.285757
316000,-0.067038,0.519542,10.879252,2.102745,-0.661736,1.682703
320000,-0.107739,0.459687,10.828975,3.064577,0.727577,1.896444
324000,-0.059855,0.569820,10.924743,3.598928,1.994753,2.171253
328000,-0.088585,0.493206,10.809821,4.163814,2.971852,2.659803
332000,-0.043096,0.529119,10.663774,4.224883,4.223761,2.843009
336000,0.009577,0.569820,10.548853,4.163814,4.635974,2.598734
340000,0.043096,0.502782,10.484209,3.232516,4.849715,2.675070
344000,0.026336,0.577003,10.340557,2.667631,4.635974,2.491864
348000,-0.179565,0.586579,10.333375,1.690531,2.697043,2.766673
352000,-0.146046,0.569820,10.390836,0.576027,0.681776,3.163620
356000,0.004788,0.610521,10.453085,-0.370538,-1.196087,3.575833
360000,0.165200,0.596156,10.479421,-1.011759,-1.959446,3.423162
364000,0.186748,0.627281,10.568007,-1.668247,-2.646469,3.163620
368000,0.296881,0.624887,10.637438,-1.988858,-3.073950,3.102551
372000,0.383072,0.636858,10.747571,-1.958324,-3.150285,2.659803
376000,0.536301,0.581791,10.965444,-1.576644,-3.379293,2.079650
380000,0.567426,0.679953,11.013328,-1.515576,-3.593034,1.346826
384000,0.423774,0.696713,11.176133,-0.920156,-3.944179,0.705604
388000,0.301669,0.691924,11.271901,-0.370538,-5.135018,0.186520
392000,0.258574,0.679953,11.255142,0.438623,-5.913644,-0.103556
396000,0.134075,0.694318,11.097125,0.637096,-5.501431,-0.302029
400000,0.174777,0.744597,11.085154,0.972974,-4.402194,-0.027220
404000,0.079009,0.804452,11.056423,1.064577,-3.577766,-0.103556
408000,-0.038307,0.790087,11.207258,1.034043,-3.669369,-0.057755
412000,-0.165200,0.732626,11.173739,1.049310,-4.463263,0.430795
416000,-0.122104,0.849942,11.135432,0.866104,-4.875476,0.507131
420000,-0.016759,0.816423,11.032481,0.041676,-4.386927,0.552933
424000,-0.088585,0.761356,11.099519,-0.477408,-2.967079,0.736139
428000,-0.069432,0.773327,11.200075,-0.553744,-2.341125,0.507131
432000,-0.277727,0.794875,11.322180,-0.202598,-2.264789,0.873543
436000,-0.318429,0.799663,11.382035,0.392821,-2.524331,1.209421
440000,-0.258574,0.866701,11.379641,0.453890,-2.829675,1.728505
444000,-0.208296,0.909797,11.456255,0.774501,-4.005247,1.911711
448000,-0.260968,0.869095,11.626244,1.140913,-5.364026,2.247589
452000,-0.184354,0.931344,11.664551,1.537859,-7.028148,2.629268
456000,-0.059855,0.912191,11.506534,2.148547,-8.264790,2.751406
460000,0.050278,0.933739,11.446678,2.301218,-8.356393,2.705604
464000,0.040701,0.984017,11.396400,2.423356,-7.837308,2.766673
468000,0.074220,0.976834,11.441890,2.392821,-8.020514,2.843009
472000,0.038307,0.976834,11.350910,2.316485,-8.280057,3.010948
476000,0.203507,1.019930,11.422736,2.163814,-8.661736,3.163620
480000,0.193930,0.974440,11.537658,2.102745,-8.218987,3.010948
484000,0.158017,1.022324,11.583148,2.011142,-7.654102,2.965146
488000,0.165200,1.084573,11.671733,2.087478,-7.623568,3.087284
492000,0.203507,1.058237,11.801021,2.606562,-7.699903,3.484231
496000,0.251391,1.161188,11.982980,3.492058,-6.768606,3.499497
500000,0.263362,1.194707,11.956643,4.423356,-5.455629,3.514765
504000,0.220267,1.355118,12.023681,5.492058,-4.112117,3.392627
508000,0.079009,1.369483,12.184093,5.995875,-3.913644,3.392627
512000,0.050278,1.453280,12.126632,6.972974,-4.264789,3.453696
516000,-0.081403,1.529895,12.157756,7.980608,-5.135018,3.652169
520000,-0.181959,1.618480,12.057199,8.331753,-6.264789,4.201787
524000,-0.169988,1.738190,12.071565,8.957706,-7.501431,4.919345
528000,-0.167594,1.745373,12.028469,9.583661,-8.783874,5.820108
532000,-0.021548,1.788469,11.913548,9.843203,-9.531965,6.384994
536000,0.040701,1.865083,11.954249,10.606562,-9.715171,6.675070
540000,0.047884,1.896208,11.858481,11.095112,-10.173186,7.194154
544000,0.172383,1.987187,11.844116,11.156180,-10.631202,7.423162
548000,0.270545,1.965640,11.767501,11.736333,-10.509065,7.484231
552000,0.301669,1.968034,11.719617,12.377554,-10.081584,7.591100
556000,0.509965,2.109292,11.559206,12.805035,-9.180820,7.865910
560000,0.538695,2.126051,11.544841,12.881371,-7.715171,7.636902
564000,0.548272,2.059013,11.518504,13.675264,-6.722805,7.285757
568000,0.608127,2.231396,11.319786,13.614195,-6.844942,7.224689
572000,0.617704,2.315193,11.312603,13.324119,-7.501431,6.873543
576000,0.596156,2.363077,11.212047,13.186714,-8.447996,6.583467
580000,0.538695,2.477999,11.190498,12.835569,-9.791507,6.201787
584000,0.476446,2.628834,10.986992,12.438622,-11.760973,5.652169
588000,0.447716,2.736573,10.845734,11.950073,-13.211354,5.484231
592000,0.387861,2.789245,10.788273,11.889005,-13.852576,5.178887
596000,0.193930,2.837129,10.728417,11.858470,-14.692270,4.995681
600000,0.004788,2.947262,10.635044,12.377554,-16.203720,5.545299
604000,-0.076614,2.973598,10.477027,12.179081,-17.241888,6.293391
608000,0.174777,3.028665,10.275913,12.011142,-18.127384,7.102551
612000,0.272939,3.177106,9.926360,10.820302,-17.974712,7.056749
616000,0.253785,3.122039,9.866506,10.179081,-17.180820,7.224689
620000,0.270545,3.086126,9.753978,9.812669,-16.829676,7.209421
624000,0.282516,2.983175,9.627085,8.850837,-16.325857,7.423162
628000,0.464475,2.997540,9.631873,8.240149,-15.211354,7.926979
632000,0.536301,2.920926,9.521740,7.858470,-13.730438,8.262856
636000,0.785298,2.806004,9.423578,6.927173,-11.272423,8.140718
640000,0.957681,2.789245,9.354146,5.919539,-8.783874,7.545299
644000,0.909797,2.715025,9.224859,4.774501,-6.356392,7.148353
648000,0.792481,2.712631,9.155427,3.354653,-5.012881,6.858276
652000,0.814029,2.695871,9.069236,0.988241,-4.447995,6.873543
656000,0.871489,2.511518,9.260772,-1.698782,-4.173186,6.644536
660000,0.933739,2.535460,9.660604,-3.897255,-4.051049,6.186521
664000,0.725443,2.604892,10.065224,-5.408706,-5.898377,5.743773
668000,0.529119,2.473210,10.460267,-5.637713,-9.944179,5.835375
672000,0.483629,2.422932,10.551247,-4.172065,-13.302958,5.591101
676000,0.593762,2.262521,10.285490,-3.454507,-14.203721,5.759039
680000,0.653617,2.145205,10.208876,-3.408705,-12.738072,5.988047
684000,0.720655,2.123657,10.455479,-2.874354,-10.631202,5.942245
688000,0.768539,2.161964,10.275913,-2.446873,-7.776239,5.667437
692000,0.857124,2.054225,10.405201,-2.675881,-3.608301,5.591101
696000,0.878672,1.929727,10.486604,-2.187331,0.834447,5.652169
700000,0.837971,1.898602,10.457873,-1.332370,4.147425,5.682703
704000,0.785298,1.783680,10.237606,-0.767484,6.697043,6.018581
708000,0.792481,1.671153,9.830592,-0.569010,7.429867,6.232322
712000,0.857124,1.630451,9.490616,-1.775118,7.368799,6.201787
716000,0.909797,1.606509,9.165004,-4.080462,5.521471,5.194154
720000,0.995988,1.549049,8.904037,-6.965958,2.254295,4.155986
724000,0.952892,1.498770,8.724471,-10.370538,-2.600667,2.583467
728000,1.005565,1.405396,8.449138,-14.370538,-7.486163,1.224688
732000,0.919373,1.225831,8.291121,-19.149162,-12.157920,-0.164625
736000,0.849942,1.036689,8.248025,-24.202599,-17.119751,-0.622640
740000,0.878672,0.976834,8.437167,-29.591911,-20.921278,-1.385999
744000,0.955287,0.888249,8.717288,-34.156796,-23.898378,-2.057755
748000,1.065420,0.866701,9.181764,-37.500309,-25.226622,-2.805846
752000,1.185130,0.770933,9.428367,-39.637711,-25.699903,-3.859281
756000,1.192312,0.787692,9.694122,-40.950691,-25.974712,-4.561571
760000,1.110910,0.715866,9.799467,-41.881989,-25.989981,-4.943251
764000,1.077391,0.727837,9.974244,-42.721684,-27.119751,-5.615006
768000,1.036689,0.569820,10.093954,-43.225498,-29.058683,-6.057755
772000,1.101333,0.524330,10.163386,-43.836185,-29.974712,-6.866915
776000,1.273715,0.478840,10.014946,-44.614811,-28.234255,-7.645541
780000,1.505953,0.325611,9.904813,-46.462139,-22.386927,-7.966151
784000,1.630451,0.064643,10.479421,-49.256031,-11.165553,-7.966151
788000,1.323994,-0.134075,11.994950,-49.027027,-1.257156,-7.523403
792000,1.063026,-0.114922,13.460202,-44.874355,4.941318,-6.821113
796000,0.806846,-0.275333,14.312538,-37.317101,8.926050,-5.034853
800000,0.814029,-0.488417,14.389153,-27.698780,13.246661,-3.569205
804000,0.955287,-0.579397,13.840880,-19.011759,19.322996,-2.729510
808000,1.041478,-0.596156,13.220781,-12.782752,24.483301,-2.485235
812000,0.969652,-0.574608,12.763490,-8.889622,27.063456,-2.561571
816000,0.857124,-0.572214,12.703634,-6.080462,25.689409,-3.340197
820000,0.675165,-0.632069,12.449849,-4.599545,21.093988,-4.408900
824000,0.505177,-0.572214,12.088325,-3.652980,16.620707,-4.836380
828000,0.337582,-0.557849,11.611878,-3.179698,14.635974,-4.927983
832000,0.227449,-0.639252,11.269507,-3.317102,16.177958,-4.378365
836000,0.064643,-0.605733,11.224017,-3.530843,19.689409,-3.034854
840000,0.028730,-0.754174,11.094730,-3.515576,24.513836,-1.905083
844000,0.019154,-0.701501,11.180922,-3.118629,29.719944,-0.653174
848000,0.090980,-0.811634,11.288661,-2.065194,34.269562,-0.011953
852000,0.169988,-0.828394,11.137826,-1.317102,37.124523,0.705604
856000,0.301669,-0.821211,11.030087,-0.721682,37.948952,0.598734
860000,0.117316,-0.962469,10.874464,-0.843820,36.544373,-0.103556
864000,-0.143652,-0.926556,10.477027,-1.958324,31.933685,-0.256228
868000,-0.323217,-0.955287,10.177752,-4.507942,23.796280,-0.592106
872000,-0.244209,-1.158794,9.804255,-9.210233,14.697042,-0.653174
876000,-0.306458,-1.024718,9.789890,-14.630080,6.193226,-0.546304
880000,-0.201113,-1.113304,10.261548,-20.187330,-1.226621,-0.531037
884000,-0.411803,-1.151611,11.164163,-23.408705,-7.501431,-1.202793
888000,-0.639252,-1.228225,11.779472,-23.515575,-11.883110,-0.836380
892000,-1.036689,-1.237802,12.339716,-21.485041,-14.860209,0.079650
896000,-1.623269,-1.441309,12.603078,-17.164431,-15.012881,2.247589
900000,-1.482011,-1.448492,12.715605,-12.553744,-10.173186,4.827742
904000,-1.170765,-1.520318,12.820951,-7.576645,0.055821,7.209421
908000,-0.761356,-1.381454,12.993333,-1.622446,14.864982,9.148352
912000,-0.565032,-1.414973,13.103466,5.049310,30.803913,10.720871
916000,-0.648829,-1.458069,12.928689,11.827936,44.544373,12.705604
920000,-0.739808,-1.398214,12.622231,17.598928,54.162693,15.438428
924000,-0.543484,-1.364695,12.088325,21.476791,59.826813,17.743773
928000,-0.296881,-1.242591,11.367670,23.446257,61.506203,18.827742
932000,0.009577,-1.206678,10.587160,23.278318,59.781013,19.072018
936000,0.203507,-1.165976,9.959879,21.873737,55.109257,17.957514
940000,0.131681,-1.261744,9.339781,18.896639,47.719944,16.736139
944000,0.050278,-1.163582,8.705317,14.927173,39.032921,15.133085
948000,-0.122104,-1.110910,8.348581,10.118012,29.032921,14.018581
952000,0.026336,-1.043872,8.145074,4.713432,19.216125,13.010947
956000,0.179565,-0.957681,7.876924,-1.194965,10.788646,11.285756
960000,0.052672,-0.962469,8.066066,-7.576645,3.979486,9.392627
964000,-0.117316,-0.857124,8.487445,-12.874354,-0.661736,7.896444
968000,-0.416591,-0.960075,9.026140,-16.782751,-3.608301,6.705605
972000,-0.486023,-0.981623,9.538500,-18.416338,-3.822041,7.026215
976000,-0.514753,-0.979228,10.139444,-18.782751,-1.715171,7.362093
980000,-0.457293,-0.984017,10.735600,-16.935423,2.345898,7.820108
984000,-0.462081,-1.046266,11.168951,-13.943057,6.712310,8.186520
988000,-0.519542,-1.096544,11.461043,-10.217866,8.727577,8.323924
992000,-1.635240,-4.479551,14.154520,-11.607179,5.933684,7.896444
996000,-0.543484,0.146046,10.213664,16.988241,9.979486,12.415527
1000000,1.271321,0.569820,8.293514,6.316485,13.582539,12.049115
1004000,1.666364,-1.544260,9.509769,5.217249,38.040554,8.995680
1008000,-0.052672,-1.654393,9.658210,4.179081,44.254295,5.896444
1012000,-0.366313,-1.436521,9.179369,-1.973591,41.048187,5.759039
1016000,-0.440533,-1.733402,10.093954,-6.187331,29.445133,6.232322
1020000,-0.045490,-1.786075,10.515334,-5.622446,24.666508,5.239955
1024000,0.081403,-1.584962,9.952697,-7.225499,23.307730,3.804841
1028000,-0.028730,-1.632846,9.622296,-11.301835,25.948952,3.178887
1032000,-0.545878,-1.699883,9.955091,-14.706416,28.590172,3.453696
1036000,-0.936133,-1.750161,10.919954,-16.553743,25.994753,3.881177
1040000,-1.079785,-1.848324,11.664551,-15.973592,19.506203,3.774307
1044000,-1.151611,-1.860295,12.162544,-13.805652,11.429867,3.285757
1048000,-1.187524,-1.865083,12.176909,-11.225499,6.223761,3.239955
1052000,-1.108515,-1.671153,11.997345,-8.431606,4.941318,4.125452
1056000,-0.924162,-1.675941,11.676521,-6.065194,7.994752,4.659803
1060000,-0.785298,-1.663970,11.595119,-4.156797,12.452767,5.346826
1064000,-0.758962,-1.601721,11.317391,-2.156797,16.193226,5.423162
1068000,-0.993594,-1.568202,11.176133,-1.317102,16.956585,5.850643
1072000,-0.964863,-1.343147,10.907983,-1.591912,15.582539,6.033849
1076000,-0.864307,-1.410185,10.723629,-3.042293,13.781012,6.155986
1080000,-0.679953,-1.453280,10.687716,-4.492675,13.078722,5.346826
1084000,-0.691924,-1.441309,10.757148,-5.836186,13.063455,5.301024
1088000,-0.514753,-1.503559,10.749966,-6.172065,13.964218,4.949879
1092000,-0.442927,-1.424550,10.809821,-6.309469,15.658875,4.659803
1096000,-0.574608,-1.417367,10.994174,-6.019393,17.048187,4.217055
1100000,-0.715866,-1.482011,11.154586,-5.271301,17.322996,3.865910
1104000,-0.809240,-1.414973,11.279084,-4.492675,15.948952,3.362093
1108000,-1.065420,-1.446098,11.310209,-3.210232,13.582539,3.102551
1112000,-1.221043,-1.256956,11.269507,-2.416339,11.445134,3.392627
1116000,-1.422156,-1.240196,11.250354,-2.004125,9.368798,3.942245
1120000,-1.443704,-1.314417,11.348516,-1.164430,8.468035,4.507131
1124000,-1.405396,-1.285686,11.197681,-0.843820,7.948951,5.301024
1128000,-1.254562,-1.340753,11.190498,-1.088094,8.574905,6.476597
1132000,-1.211466,-1.345541,11.475409,-0.843820,9.506203,7.056749
1136000,-1.065420,-1.347936,11.446678,-0.630080,11.170325,7.911711
1140000,-0.871489,-1.206678,11.547235,0.514959,14.025287,8.217054
1144000,-0.579397,-1.235408,11.516110,1.736333,17.842081,8.278123
1148000,-0.361524,-1.273715,11.614272,3.705798,22.437500,8.018581
1152000,-0.210690,-1.197101,11.437101,5.583661,27.414600,7.530032
1156000,-0.179565,-1.233014,11.224017,6.805035,30.162691,6.598734
1160000,-0.169988,-1.137246,11.219229,7.369921,29.353531,5.667437
1164000,-0.284910,-1.084573,11.003751,7.003509,26.040554,4.598734
1168000,-0.433351,-1.012747,10.821792,5.614195,20.819180,3.438429
1172000,-0.452504,-0.964863,10.536881,4.072211,15.216126,2.476597
1176000,-0.816423,-0.885855,10.546458,2.301218,9.124523,1.942245
1180000,-0.816423,-0.921768,10.611102,0.224882,2.254295,2.018581
1184000,-0.871489,-0.976834,10.694899,-0.813286,-2.661736,1.743772
1188000,-0.823605,-0.890643,10.690110,-1.271301,-5.043415,1.239955
1192000,-0.984017,-0.878672,10.726024,-1.668247,-5.043415,1.270490
1196000,-1.086968,-0.881066,10.790668,-1.546110,-3.654102,1.560566
1200000,-1.101333,-0.833182,11.094730,-0.370538,-0.967079,2.323925
1204000,-1.017536,-0.823605,11.207258,1.537859,2.406966,2.888810
1208000,-0.900220,-0.742203,11.288661,3.186715,5.155058,3.743773
1212000,-0.900220,-0.897826,11.360487,5.583661,7.017653,4.018581
1216000,-0.902614,-0.842759,11.178528,7.522593,7.216127,4.186521
1220000,-0.984017,-0.816423,10.891224,8.133280,5.552005,5.072017
1224000,-0.746991,-0.665588,10.618284,7.965341,3.124524,5.438429
1228000,-0.457293,-0.591368,10.304645,6.881371,1.506203,5.010948
1232000,-0.220267,-0.581791,10.216059,5.476791,1.384066,3.865910
1236000,-0.256180,-0.064643,10.084377,3.614195,1.002386,3.453696
1240000,-0.653617,-0.708684,10.242394,-3.225499,-3.058682,5.133085
1244000,-0.086191,-1.788469,11.176133,0.591295,-5.562499,1.636902
1248000,-0.430956,-0.780510,9.775525,0.576027,-6.447995,-0.195159
1252000,-0.773327,-0.531513,9.761160,-4.904889,-5.531965,1.117818
1256000,-0.792481,-0.878672,11.200075,-4.889622,-4.203721,1.743772
1260000,-0.902614,-0.620098,11.777079,-1.149163,-6.722805,1.377360
1264000,-0.821211,-0.502782,11.702858,1.919539,-9.440362,1.743772
1268000,-0.689530,-0.488417,11.159374,3.278317,-8.249522,2.308658
1272000,-0.737414,-0.490811,10.951078,4.316485,-4.142652,2.949879
1276000,-0.725443,-0.488417,10.939108,4.285951,-1.547232,3.270490
1280000,-0.773327,-0.342371,11.185710,4.453890,-3.287690,3.468963
1284000,-0.634463,-0.325611,11.190498,4.759233,-7.501431,3.652169
1288000,-0.442927,-0.380678,11.154586,5.064577,-10.203721,3.301024
1292000,-0.177171,-0.383072,10.939108,5.156180,-10.402194,2.446062
1296000,-0.126893,-0.287304,10.711658,3.889004,-9.226622,1.728505
1300000,-0.191536,-0.232238,10.874464,3.492058,-8.112118,1.163620
1304000,-0.445322,-0.392649,11.209652,4.240149,-8.112118,0.064383
1308000,-0.500388,-0.421380,11.195287,4.911905,-9.089217,-0.179892
1312000,-0.586579,-0.306458,11.358093,5.904272,-10.615934,-0.500503
1316000,-0.586579,-0.193930,11.317391,6.850837,-11.745706,-0.729510
1320000,-0.584185,-0.184354,11.142614,6.850837,-12.203721,-0.927984
1324000,-0.641646,-0.198719,10.965444,6.805035,-11.776240,-0.882182
1328000,-0.596156,-0.198719,10.905589,5.934806,-11.287690,-0.927984
1332000,-0.672771,-0.198719,10.867282,4.972974,-11.196087,-0.927984
1336000,-0.636858,-0.217872,10.898406,4.316485,-11.348759,-1.233327
1340000,-0.699107,-0.270545,10.998962,3.950073,-11.944179,-0.882182
1344000,-0.627281,-0.232238,10.965444,3.919539,-11.623569,-0.439434
1348000,-0.553061,-0.289698,11.003751,3.766867,-10.646469,-0.011953
1352000,-0.411803,-0.280122,11.066000,4.423356,-8.493797,0.140719
1356000,-0.430956,-0.306458,11.152191,4.942440,-6.860209,-0.011953
1360000,-0.375890,-0.402226,11.113884,5.308852,-5.883110,-0.240961
1364000,-0.320823,-0.497994,11.140221,5.583661,-5.974713,-1.050121
1368000,-0.169988,0.079009,10.484209,5.018775,-5.318224,0.064383
1372000,-0.244209,-0.371101,10.675745,-0.828552,-2.982346,-2.454701
1376000,-0.758962,-0.900220,11.889606,2.759233,-3.531965,-2.073022
1380000,-0.797269,-0.150835,11.267113,4.453890,-7.302957,-0.851648
1384000,-0.299275,-0.081403,10.972627,0.423356,-6.249522,-0.576838
1388000,-0.105345,-0.591368,11.947066,3.400455,-0.951812,-0.989052
1392000,-0.507571,-0.347159,11.552023,6.469157,1.872615,-1.355464
1396000,-0.466869,0.100556,10.912771,4.316485,3.032921,0.232322
1400000,-0.213084,-0.351948,11.599907,3.614195,4.406967,0.140719
1404000,-0.280122,-0.454898,11.767501,6.285951,4.452768,-0.118823
1408000,-0.045490,-0.138864,11.238382,5.797401,3.139791,-1.034854
1412000,-0.055067,-0.294487,11.331757,5.736333,2.819180,-1.813480
1416000,-0.083797,-0.318429,11.389217,7.369921,3.429867,-2.347831
1420000,-0.146046,-0.102951,11.082760,7.919539,3.155058,-3.019587
1424000,-0.438139,-0.035913,11.233594,7.583661,1.078722,-3.248594
1428000,-0.634463,-0.122104,11.518504,8.362287,-4.295324,-2.683709
1432000,-0.136469,-0.198719,11.372458,9.369921,-8.188454,-2.760045
1436000,-0.320823,-0.083797,10.905589,9.446257,-10.249522,-3.752411
1440000,-0.248997,-0.150835,11.185710,9.461524,-13.012881,-4.683709
1444000,-0.316035,-0.112527,11.101913,10.056944,-14.661736,-5.034853
1448000,-0.407014,0.004788,10.979809,9.736333,-16.402193,-5.859281
1452000,-0.497994,0.035913,10.840945,9.568394,-15.730438,-6.515769
1456000,-0.790087,0.000000,10.809821,9.232516,-15.547233,-6.500503
1460000,-0.919373,-0.107739,10.924743,9.415722,-14.814408,-6.134090
1464000,-0.981623,-0.124498,10.788273,9.354653,-13.073950,-5.508136
1468000,-0.950498,0.000000,10.670957,9.034042,-9.944179,-5.019587
1472000,-0.998382,-0.122104,10.745177,8.453890,-6.509064,-4.042487
1476000,-1.161188,-0.126893,10.884041,8.576028,-5.318224,-2.805846
1480000,-1.103727,-0.162806,10.855310,7.721066,-4.722805,-1.676075
1484000,-0.921768,-0.196325,10.965444,6.896638,-5.119751,-0.775312
1488000,-0.677559,-0.155623,11.049241,6.805035,-5.287690,-0.210426
1492000,-0.507571,-0.040701,10.996569,6.469157,-4.951812,0.003314
1496000,-0.268151,-0.179565,11.006145,6.484425,-3.257156,-0.179892
1500000,-0.107739,-0.316035,10.948685,7.186714,-0.936545,-0.454701
1504000,-0.047884,-0.232238,10.888829,7.476791,0.254295,-1.202793
1508000,-0.052672,-0.122104,10.826580,7.705798,0.987119,-1.462335
1512000,-0.040701,-0.244209,10.862494,7.232516,1.322997,-1.950884
1516000,-0.002394,-0.251391,10.737994,6.911905,1.597806,-2.546304
1520000,-0.028730,-0.227449,10.630256,5.690531,1.490936,-3.050121
1524000,-0.009577,-0.234632,10.814610,4.591295,0.773379,-4.042487
1528000,-0.083797,-0.258574,11.073183,3.858470,-1.287690,-4.683709
1532000,-0.205901,-0.366313,11.382035,3.629463,-3.913644,-4.989052
1536000,-0.239420,-0.246603,11.365275,3.659997,-5.760972,-5.569205
1540000,-0.339977,-0.268151,11.552023,4.133279,-6.554865,-5.676075
1544000,-0.521936,-0.189142,11.702858,5.598928,-6.921278,-5.859281
1548000,-0.653617,-0.167594,11.647791,7.522593,-8.264790,-5.553937
1552000,-0.641646,-0.167594,11.513716,8.850837,-8.997614,-5.340197
1556000,-0.507571,-0.320823,11.513716,10.072210,-9.211354,-5.492869
1560000,-0.612916,-0.301669,11.370064,10.957706,-8.875477,-5.416533
1564000,-0.553061,-0.205901,11.178528,11.553126,-8.264790,-5.263861
1568000,-0.454898,-0.086191,10.740389,10.911905,-6.936545,-4.912716
1572000,-0.486023,-0.071826,10.697293,9.904272,-4.829675,-4.485235
1576000,-0.462081,0.031125,10.532093,9.079844,-3.272423,-3.844014
1580000,-0.347159,0.050278,10.618284,8.102745,-2.157919,-3.553938
1584000,-0.177171,0.086191,10.536881,7.598928,-1.822041,-3.370732
1588000,-0.050278,0.114922,10.445902,7.079844,-1.104484,-3.813480
1592000,0.014365,0.100556,10.330980,6.163814,-0.753339,-4.546304
1596000,-0.280122,0.071826,10.390836,5.156180,-2.280056,-4.897449
1600000,-0.294487,0.076614,10.481815,4.392821,-4.615934,-5.248594
1604000,-0.316035,0.035913,10.615891,3.705798,-6.783873,-5.767678
1608000,-0.368707,0.086191,10.687716,3.385188,-8.005247,-6.454701
1612000,-0.493206,0.122104,10.797850,3.858470,-7.883110,-6.790579
1616000,-0.577003,0.215478,10.749966,4.026409,-7.043415,-6.790579
1620000,-0.739808,0.191536,10.769119,4.499691,-5.638835,-6.515769
1624000,-0.723049,0.129287,10.802638,5.156180,-3.822041,-6.149357
1628000,-0.658405,0.208296,10.467450,4.789768,-1.211354,-5.782945
1632000,-0.794875,0.146046,10.443508,4.163814,-0.005247,-5.340197
1636000,-0.842759,0.076614,10.625467,3.904272,-0.142652,-4.973785
1640000,-0.660800,0.169988,10.603919,2.927173,-0.447995,-5.034853
1644000,-0.543484,0.112527,10.742783,2.133279,-1.684637,-4.698976
1648000,-0.457293,0.124498,10.759542,2.133279,-1.318224,-4.821113
1652000,-0.378284,0.179565,10.716447,1.965340,-0.280056,-5.309663
1656000,-0.328006,0.148441,10.709264,1.675264,1.475669,-5.599739
1660000,-0.442927,0.196325,10.795456,1.812669,2.483302,-6.164625
1664000,-0.610521,0.186748,10.874464,1.950073,2.742844,-6.332563
1668000,-0.660800,0.227449,10.874464,2.011142,2.742844,-6.714243
1672000,-0.746991,0.167594,10.939108,2.469157,2.956585,-6.897449
1676000,-0.866701,0.131681,10.819398,2.896638,3.536737,-6.973785
1680000,-0.895431,0.131681,10.793061,2.774501,4.132157,-6.943251
1684000,-1.017536,0.119710,10.706870,2.743967,4.529104,-6.576838
1688000,-1.204283,0.047884,10.697293,2.347020,5.261929,-6.561571
1692000,-1.280898,0.038307,10.754754,1.904272,5.689409,-5.813479
1696000,-1.388637,0.064643,10.687716,1.736333,5.750478,-5.080655
1700000,-1.407791,-0.016759,10.747571,1.873737,6.483303,-4.088289
1704000,-1.371878,0.004788,10.716447,2.102745,7.384066,-2.973785
1708000,-1.211466,-0.047884,10.747571,2.438623,8.590172,-1.584472
1712000,-1.022324,-0.079009,10.625467,2.988241,9.826814,-0.775312
1716000,-0.821211,-0.004788,10.587160,3.339386,10.239027,-0.240961
1720000,-0.656011,-0.074220,10.371682,2.728699,10.376431,-0.286762
1724000,-0.483629,-0.105345,10.271125,1.659997,9.521470,-0.607373
1728000,-0.387861,-0.155623,10.251971,0.194348,8.880248,-1.095922
1732000,-0.316035,-0.181959,10.340557,-1.378171,7.719944,-1.859281
1736000,-0.165200,-0.258574,10.345345,-2.385804,7.613074,-2.439434
1740000,-0.093374,-0.294487,10.539276,-3.149163,7.979486,-3.111190
1744000,-0.162806,-0.225055,10.776301,-2.721682,7.704676,-3.691342
1748000,-0.155623,-0.229843,10.845734,-2.736950,7.658875,-4.240961
1752000,-0.225055,-0.203507,10.934319,-2.324736,7.246661,-4.592105
1756000,-0.347159,-0.208296,10.958261,-1.805652,6.788646,-4.943251
1760000,-0.426168,-0.251391,10.872070,-1.698782,6.010020,-5.340197
1764000,-0.502782,-0.248997,10.771513,-1.759850,5.826814,-5.340197
1768000,-0.474052,-0.169988,10.773908,-2.019392,6.391699,-5.691342
1772000,-0.418985,-0.306458,10.869676,-2.309469,7.155058,-5.966151
1776000,-0.718261,-0.270545,11.044453,-2.172064,8.132157,-6.286762
1780000,-1.036689,-0.196325,11.322180,-2.416339,6.635974,-5.874548
1784000,-1.177947,-0.292093,11.643003,-1.805652,3.414600,-4.653174
1788000,-1.115698,-0.158017,11.580753,-0.507942,0.605440,-3.584472
1792000,-0.940921,-0.272939,11.678916,-0.004125,-1.241889,-2.866915
1796000,-0.912191,-0.232238,11.817780,1.812669,-2.066316,-2.531037
1800000,-0.952892,-0.222661,11.856087,3.614195,-3.196087,-2.500503
1804000,-0.919373,-0.196325,11.786655,5.721066,-3.318224,-2.408900
1808000,-0.936133,-0.227449,11.604695,7.308852,-2.967079,-2.439434
1812000,-0.969652,-0.203507,11.410766,8.820302,-1.944179,-2.073022
1816000,-0.962469,-0.167594,11.212047,9.461524,-1.119751,-1.920350
1820000,-0.902614,-0.165200,11.161768,10.011142,-0.432728,-1.844014
1824000,-0.919373,-0.083797,10.955867,9.629462,-1.348759,-1.248594
1828000,-0.912191,0.004788,10.778696,9.171448,-2.768606,-1.355464
1832000,-0.981623,-0.028730,10.860099,8.270684,-4.127385,-1.202793
1836000,-1.022324,0.067038,10.625467,7.675264,-5.104484,-1.034854
1840000,-0.962469,0.031125,10.553641,6.942440,-5.364026,-1.126457
1844000,-0.897826,0.090980,10.445902,6.240149,-4.539598,-1.156991
1848000,-1.000776,0.040701,10.529699,5.782134,-3.516698,-0.897449
1852000,-0.943315,0.064643,10.498574,5.034043,-3.058682,-0.607373
1856000,-0.986411,0.045490,10.510546,4.530226,-2.906011,-0.302029
1860000,-0.974440,0.019154,10.568007,4.026409,-2.783873,-0.149358
1864000,-0.890643,0.057461,10.488997,3.369921,-2.570133,0.201787
1868000,-0.876278,0.095768,10.498574,2.805035,-1.196087,0.812474
1872000,-0.799663,0.052672,10.319010,1.934806,-0.280056,0.995681
1876000,-0.596156,0.079009,10.261548,1.369921,0.895516,1.133085
1880000,-0.507571,0.064643,10.390836,0.194348,1.246661,1.072016
1884000,-0.378284,0.021548,10.371682,-0.782751,0.956585,0.552933
1888000,-0.493206,-0.045490,10.488997,-1.866720,-0.157919,-0.118823
1892000,-0.318429,-0.102951,10.484209,-2.599545,-1.333492,-0.546304
1896000,-0.272939,-0.057461,10.735600,-3.332370,-1.699904,-1.080655
1900000,-0.361524,-0.067038,10.960655,-2.691148,-1.486163,-1.950884
1904000,-0.440533,-0.107739,11.173739,-1.744583,-1.837308,-2.408900
1908000,-0.773327,-0.052672,11.221623,-0.217866,-2.051049,-2.302029
1912000,-0.928950,-0.050278,11.226412,1.507325,-3.028148,-1.706609
1916000,-0.814029,-0.098162,11.152191,2.896638,-2.005247,-1.218060
1920000,-0.873884,-0.035913,10.970232,3.675264,0.162692,-0.912716
1924000,-0.950498,0.002394,10.876859,4.026409,1.155058,-0.607373
1928000,-0.914585,0.083797,10.836157,4.499691,0.758111,-0.164625
1932000,-0.905008,0.055067,10.771513,4.072211,0.422234,0.262856
1936000,-0.763750,0.035913,10.568007,3.553127,0.223760,0.476597
1940000,-0.639252,0.023942,10.544065,2.713432,0.361165,0.629268
1944000,-0.634463,0.143652,10.697293,1.889004,0.208493,0.430795
1948000,-0.567426,0.031125,10.754754,1.690531,0.223760,-0.073022
1952000,-0.519542,0.074220,10.711658,1.675264,0.681776,-0.546304
1956000,-0.414197,0.016759,10.838552,1.690531,1.460402,-1.004319
1960000,-0.514753,0.086191,10.891224,1.598928,2.269562,-1.645541
1964000,-0.658405,0.026336,11.116279,1.919539,2.040554,-1.385999
1968000,-0.871489,0.100556,11.192893,1.965340,0.208493,-1.187526
1972000,-0.916979,0.086191,11.310209,2.713432,-1.486163,-0.958518
1976000,-0.969652,0.098162,11.384429,3.354653,-2.646469,-0.637907
1980000,-0.900220,0.055067,11.145009,3.492058,-3.043415,-0.683709
1984000,-1.029507,0.007183,11.128249,3.812669,-3.043415,-0.302029
1988000,-1.098939,-0.028730,11.066000,4.056943,-3.028148,0.049116
1992000,-1.142034,0.102951,10.984597,3.965340,-3.241888,0.919345
1996000,-0.945710,0.031125,10.963050,3.797401,-2.890743,1.423162
