time_us,ax,ay,az,gx,gy,gz
0,-0.433351,0.143652,10.881647,-2.126262,-8.112118,3.255223
4000,-0.356736,0.229843,10.951078,-1.851454,-7.547232,3.667437
8000,-0.248997,0.181959,11.066000,-1.347636,-6.692270,3.285757
12000,-0.167594,0.160412,10.982203,-1.027026,-5.226621,3.102551
16000,-0.237026,0.169988,10.852917,-0.752217,-4.218988,2.904078
20000,-0.313640,0.141258,10.996569,-0.813286,-3.577766,2.598734
24000,-0.407014,0.292093,10.943896,-0.721682,-3.730438,2.430795
28000,-0.423774,0.282516,10.972627,-1.103362,-3.302957,2.552932
32000,-0.246603,0.268151,11.015722,-0.996492,-2.860209,2.934612
36000,-0.232238,0.217872,10.848128,-1.469774,-2.692270,2.843009
40000,-0.265756,0.275333,10.862494,-1.500308,-1.867843,2.919345
44000,-0.256180,0.275333,10.840945,-1.943056,-2.051049,3.056749
48000,-0.239420,0.275333,10.759542,-2.736950,-2.249522,3.072016
52000,-0.090980,0.294487,10.809821,-3.515576,-2.218988,3.056749
56000,0.011971,0.287304,10.793061,-3.866720,-1.867843,2.797207
60000,0.052672,0.320823,10.898406,-4.172065,-1.058682,2.323925
64000,0.179565,0.347159,10.960655,-3.851454,-0.707537,1.759039
68000,0.198719,0.318429,11.003751,-3.698782,0.468035,1.362093
72000,0.141258,0.325611,10.998962,-3.286568,1.490936,0.446062
76000,-0.052672,0.311246,10.943896,-3.057560,2.468035,0.064383
80000,-0.186748,0.375890,10.893618,-3.011759,2.620707,-0.149358
84000,-0.241814,0.402226,10.915166,-3.027026,2.330631,0.186520
88000,-0.313640,0.402226,10.927136,-3.210232,1.872615,0.293391
92000,-0.313640,0.371101,10.879252,-3.637713,1.552005,0.278123
96000,-0.411803,0.459687,11.034876,-3.927789,0.406966,0.491864
100000,-0.486023,0.428562,11.149797,-3.958324,-1.348759,0.323925
104000,-0.560243,0.509965,11.152191,-3.897255,-2.356392,0.339192
108000,-0.634463,0.490811,11.231200,-3.256034,-3.791507,0.781940
112000,-0.720655,0.517148,11.319786,-2.782751,-5.684637,1.484230
116000,-0.627281,0.486023,11.300632,-1.958324,-6.539598,1.942245
120000,-0.464475,0.493206,11.173739,-1.088094,-6.096850,2.339192
124000,-0.378284,0.591368,11.178528,-0.828552,-5.257155,2.720871
128000,-0.316035,0.598550,11.092337,-0.553744,-4.844942,2.827742
132000,-0.366313,0.682347,10.946290,-0.462140,-4.646469,2.934612
136000,-0.363919,0.663194,10.848128,-1.149163,-5.196087,3.026215
140000,-0.304064,0.679953,10.742783,-2.004125,-5.883110,3.087284
144000,-0.227449,0.670376,10.761936,-2.996492,-5.852575,2.797207
148000,-0.155623,0.718261,10.740389,-4.019392,-5.959445,2.430795
152000,-0.158017,0.703895,10.893618,-5.011759,-5.989980,2.186520
156000,-0.244209,0.751779,11.049241,-5.179698,-5.623568,2.064383
160000,-0.332794,0.749385,11.245565,-5.072827,-5.302957,2.125452
164000,-0.342371,0.708684,11.360487,-4.614813,-4.463263,2.384994
168000,-0.402226,0.727837,11.396400,-3.958324,-2.783873,2.461329
172000,-0.416591,0.797269,11.597513,-2.660614,-0.860209,2.843009
176000,-0.591368,0.842759,11.547235,-1.668247,0.406966,3.133085
180000,-0.667982,0.912191,11.520899,-0.462140,1.384066,3.575833
184000,-0.732626,0.943315,11.422736,0.347020,2.086356,4.323925
188000,-0.684742,0.952892,11.408371,1.140913,2.284829,4.751406
192000,-0.679953,0.967257,11.382035,1.278317,1.704676,5.041482
196000,-0.701501,1.005565,11.374852,1.400455,-0.020514,5.255223
200000,-0.689530,0.995988,11.444284,2.011142,-2.585400,5.667437
204000,-0.545878,1.101333,11.370064,2.240149,-4.509064,5.682703
208000,-0.349553,1.223437,11.274296,2.285951,-4.386927,5.346826
212000,-0.181959,1.161188,11.274296,2.911905,-2.906011,4.675070
216000,-0.203507,1.228225,11.216835,3.675264,-0.677003,4.491864
220000,-0.289698,1.177947,11.214440,4.560760,1.063455,4.232322
224000,-0.287304,1.161188,11.192893,5.354653,2.345898,4.201787
228000,-0.407014,1.185130,11.092337,6.133279,3.032921,4.018581
232000,-0.416591,1.130063,11.006145,6.255417,3.109257,3.926979
236000,-0.488417,1.182736,10.872070,6.026409,3.475669,3.713238
240000,-0.632069,1.237802,10.737994,5.782134,3.048188,3.209421
244000,-0.821211,1.180341,10.678140,5.324119,2.284829,3.041482
248000,-0.931344,1.199495,10.505757,4.240149,0.742844,3.346826
252000,-0.976834,1.161188,10.414778,3.308852,-0.707537,3.896444
256000,-0.943315,1.149217,10.268731,1.553127,-2.539598,4.446063
260000,-1.012747,1.113304,10.321404,-0.126262,-4.860209,5.117818
264000,-0.967257,1.067814,10.457873,-1.576644,-7.822041,5.621635
268000,-0.869095,1.065420,10.364499,-3.072828,-9.928912,5.865910
272000,-0.699107,0.921768,10.445902,-4.034659,-10.234255,6.018581
276000,-0.469264,0.826000,10.438720,-4.904889,-8.173186,6.155986
280000,-0.332794,0.754174,10.553641,-5.332370,-4.631201,6.430795
284000,-0.375890,0.804452,10.831368,-5.088095,-1.730438,6.400261
288000,-0.294487,0.739808,11.089942,-4.065194,-0.142652,6.186521
292000,-0.428562,0.696713,11.200075,-2.798018,0.101623,6.308658
296000,-0.430956,0.754174,11.195287,-1.515576,-1.043415,6.201787
300000,-0.438139,0.742203,11.001357,-0.523209,-2.402194,6.354459
304000,-0.272939,0.746991,10.900801,-0.202598,-3.822041,6.247589
308000,-0.148441,0.732626,10.785878,-0.294202,-4.356392,6.049116
312000,-0.076614,0.768539,10.874464,-0.828552,-4.402194,5.301024
316000,-0.141258,0.713472,10.749966,-1.194965,-4.585400,4.629269
320000,-0.268151,0.603339,11.056423,-1.164430,-5.241889,4.262856
324000,-0.380678,0.596156,11.204864,-0.843820,-5.333491,4.293391
328000,-0.495600,0.612916,11.307815,-0.278934,-4.997613,4.125452
332000,-0.548272,0.612916,11.425131,0.927172,-4.112117,4.598734
336000,-0.622492,0.584185,11.599907,2.118012,-3.180820,4.766673
340000,-0.598550,0.543484,11.633426,3.308852,-1.974713,5.331559
344000,-0.651223,0.514753,11.880029,4.270684,-0.554866,5.957513
348000,-0.409408,0.464475,11.999739,5.507325,0.819180,6.232322
352000,-0.277727,0.505177,12.145785,7.263050,3.475669,6.308658
356000,-0.325611,0.505177,12.150574,9.125646,6.086356,6.491864
360000,-0.294487,0.579397,12.124237,11.079844,8.162691,6.766673
364000,-0.208296,0.617704,11.860875,12.972974,10.025287,7.041482
368000,-0.179565,0.739808,11.590330,14.408089,11.277195,7.117818
372000,-0.184354,0.720655,11.484985,14.957706,9.857347,6.675070
376000,-0.258574,0.804452,11.250354,15.217249,6.177959,6.339192
380000,-0.237026,0.790087,10.852917,14.331753,1.490936,5.606368
384000,-0.114922,0.802058,10.536881,12.499691,-3.577766,5.087284
388000,0.014365,0.641646,10.297462,10.362287,-6.875476,4.491864
392000,0.292093,0.658405,10.204087,7.873737,-8.631202,3.484231
396000,0.253785,0.495600,10.187328,5.217249,-8.753339,2.522398
400000,-0.026336,0.395043,10.450690,3.537859,-9.073950,2.018581
404000,-0.426168,0.390255,10.924743,2.224883,-10.371660,2.217055
408000,-0.608127,0.277727,11.185710,2.102745,-11.852576,3.041482
412000,-0.656011,0.203507,11.496957,3.034043,-12.570133,4.247589
416000,-0.543484,0.083797,11.537658,4.392821,-11.699904,4.873543
420000,-0.536301,0.031125,11.602302,5.812669,-11.135018,5.545299
424000,-0.390255,-0.045490,11.602302,7.201982,-10.600668,6.430795
428000,-0.083797,0.002394,11.513716,8.056944,-9.928912,6.552933
432000,0.201113,0.043096,11.209652,8.530226,-8.844942,6.125452
436000,0.251391,0.043096,11.116279,8.881371,-7.394560,5.377360
440000,0.270545,0.035913,10.958261,8.942440,-6.066316,4.736139
444000,0.253785,0.055067,10.826580,8.789768,-5.822041,4.369727
448000,0.177171,0.160412,10.568007,8.362287,-5.028148,4.003314
452000,0.203507,0.172383,10.438720,7.965341,-4.218988,3.759039
456000,0.363919,0.191536,10.297462,7.568394,-2.860209,3.499497
460000,0.483629,0.148441,10.187328,6.682898,-0.844942,2.919345
464000,0.581791,0.196325,10.160992,5.430989,1.842081,2.354459
468000,0.493206,0.241814,10.302250,3.797401,3.765745,1.148352
472000,0.320823,0.272939,10.584765,3.018775,4.055821,0.201787
476000,-0.136469,0.225055,10.826580,2.331753,2.727577,-0.057755
480000,-0.457293,0.311246,10.939108,2.606562,0.910783,0.125452
484000,-0.490811,0.263362,10.998962,3.201982,-0.447995,0.766673
488000,-0.519542,0.299275,11.049241,3.904272,-0.738072,1.178887
492000,-0.366313,0.294487,11.070788,4.194348,-0.478530,1.530032
496000,-0.390255,0.306458,11.106702,4.560760,-0.677003,1.499497
500000,-0.466869,0.237026,11.145009,4.560760,-1.272423,1.468963
504000,-0.464475,0.217872,11.109096,4.637096,-2.325858,1.468963
508000,-0.423774,0.181959,10.931925,4.453890,-2.768606,1.621635
512000,-0.349553,0.179565,10.951078,4.469157,-3.409827,1.926978
516000,-0.241814,0.153229,11.140221,4.591295,-5.837308,1.438429
520000,-0.150835,0.277727,11.089942,5.201982,-5.287690,1.468963
524000,-0.260968,0.225055,10.888829,5.522593,-3.226621,1.392627
528000,-0.383072,0.280122,10.864887,6.087478,-0.936545,1.774307
532000,-0.402226,0.270545,11.006145,7.537859,0.116890,3.102551
536000,-0.301669,0.301669,10.972627,9.278317,1.643608,4.033849
540000,-0.122104,0.239420,10.632649,10.087478,3.292463,4.461329
544000,-0.126893,0.270545,10.443508,10.377554,4.315363,4.690337
548000,-0.129287,0.402226,10.302250,10.179081,3.139791,5.072017
552000,-0.146046,0.433351,10.050858,9.644730,0.788646,5.331559
556000,-0.031125,0.462081,9.701305,8.270684,-1.043415,5.239955
560000,0.196325,0.622492,9.375694,6.789768,-1.623568,4.858276
564000,0.296881,0.514753,9.176975,5.064577,-2.188453,4.232322
568000,0.387861,0.603339,8.971074,2.316485,-2.707537,3.926979
572000,0.629675,0.677559,9.062054,-0.691148,-2.615934,2.827742
576000,0.603339,0.749385,9.148245,-4.065194,-1.348759,1.377360
580000,0.227449,0.787692,9.382876,-6.965958,0.376432,-0.134090
584000,-0.148441,0.675165,9.689334,-9.485042,1.460402,-0.561571
588000,-0.572214,0.562637,10.172963,-11.714049,0.956585,0.140719
592000,-0.900220,0.452504,10.951078,-11.866721,-1.348759,1.087284
596000,-1.309628,0.359130,11.549629,-11.133897,-4.341125,2.629268
600000,-1.307234,0.481235,11.875240,-10.309469,-8.554866,3.682703
604000,-1.177947,0.301669,12.217611,-8.263667,-10.020514,4.675070
608000,-1.017536,0.069432,12.394782,-5.546110,-7.852575,5.697971
612000,-1.204283,0.114922,12.188881,-2.874354,-3.425095,6.705605
616000,-1.398214,0.167594,12.346898,0.499691,0.300096,8.033848
620000,-1.517924,0.064643,12.313379,4.194348,3.170325,10.354459
624000,-1.407791,0.038307,12.107478,7.690531,5.628341,12.308658
628000,-1.154005,0.158017,11.801021,9.827936,7.964219,13.743772
632000,-1.067814,0.177171,11.437101,11.400455,10.223760,14.827742
636000,-0.746991,0.256180,10.979809,12.682898,12.208493,15.667436
640000,-0.433351,0.172383,10.517728,12.331753,14.025287,15.850642
644000,-0.390255,0.265756,10.077195,11.385188,15.643608,15.667436
648000,-0.366313,0.260968,9.689334,9.308852,15.078722,15.575833
652000,-0.392649,0.246603,9.639056,6.392821,11.521470,15.163619
656000,-0.208296,0.079009,9.595961,2.362287,6.406967,14.888810
660000,-0.031125,0.141258,9.809045,-1.973591,1.445134,14.125451
664000,0.033519,-0.007183,10.304645,-5.423973,-4.371659,13.239955
668000,-0.028730,-0.045490,10.773908,-8.080462,-10.936545,12.247588
672000,-0.090980,-0.134075,11.111490,-9.423973,-17.226622,11.881176
676000,-0.088585,-0.299275,11.635820,-9.912522,-23.333492,11.560566
680000,-0.383072,-0.172383,12.129025,-9.454507,-30.325859,11.346826
684000,-0.526724,-0.277727,12.691663,-6.904889,-37.852577,11.636902
688000,-0.361524,-0.225055,12.588713,-3.591912,-42.066315,12.125451
692000,0.071826,-0.208296,12.200851,-0.813286,-40.875477,12.323924
696000,0.395043,-0.074220,11.947066,2.530226,-33.822041,12.476596
700000,0.581791,0.033519,11.789049,5.385188,-24.844942,12.751406
704000,0.598550,0.023942,11.666945,7.369921,-15.669370,12.904078
708000,0.560243,0.052672,11.693281,9.766868,-7.944179,13.682703
712000,0.565032,0.069432,11.480197,11.156180,-3.287690,14.186520
716000,0.746991,-0.122104,11.279084,11.461524,-1.593034,14.339191
720000,0.857124,-0.112527,10.927136,12.377554,-2.157919,14.140718
724000,1.096544,-0.165200,10.314221,11.507325,-3.928911,13.392627
728000,1.247379,-0.110133,9.830592,9.629462,-5.669369,11.759039
732000,1.383849,-0.067038,9.660604,7.507325,-6.844942,10.308658
736000,1.635240,0.002394,9.184157,4.041677,-6.860209,8.033848
740000,1.731008,-0.057461,9.088389,0.591295,-6.432728,5.865910
744000,1.769315,-0.126893,9.244013,-2.874354,-5.791507,3.545299
748000,1.584962,-0.237026,9.552865,-5.866721,-6.524331,1.362093
752000,1.120486,-0.105345,9.844957,-8.187331,-8.539598,-0.134090
756000,0.845153,-0.158017,10.017340,-10.019393,-9.211354,-1.233327
760000,0.608127,-0.198719,10.165780,-10.675881,-8.906011,-2.439434
764000,0.409408,-0.323217,10.407595,-10.309469,-8.020514,-2.973785
768000,0.227449,-0.363919,10.644621,-9.164431,-8.020514,-2.989052
772000,0.294487,-0.411803,10.817003,-7.866721,-7.730438,-3.141724
776000,0.478840,-0.342371,10.879252,-7.301835,-5.486163,-3.935617
780000,0.593762,-0.332794,10.917560,-6.385805,-0.799140,-4.897449
784000,0.500388,-0.246603,11.015722,-5.103362,4.620707,-6.118823
788000,0.026336,-0.208296,11.216835,-3.210232,9.353531,-6.118823
792000,-0.375890,-0.134075,11.367670,-1.591912,12.483302,-5.324930
796000,-0.244209,0.035913,11.336545,0.835569,19.857347,-5.111189
800000,-0.739808,0.167594,11.276690,3.095111,23.445133,-4.378365
804000,-0.881066,0.117316,11.542446,5.766867,25.643608,-3.370732
808000,-1.077391,0.284910,11.353305,8.011142,25.613073,-2.332564
812000,-1.163582,0.435745,11.197681,9.034042,24.758112,-1.844014
816000,-1.436521,0.452504,11.085154,9.125646,22.498569,-0.836380
820000,-1.489193,0.627281,10.828975,8.957706,20.681776,0.064383
824000,-1.446098,0.708684,10.737994,8.285952,18.147425,1.056749
828000,-1.091756,0.679953,10.627861,8.331753,17.093988,1.972780
832000,-0.787692,0.651223,10.431537,7.873737,18.010019,1.667436
836000,-0.964863,0.641646,10.307038,6.453890,19.032921,1.850642
840000,-1.161188,0.715866,10.395624,4.377554,18.544371,2.125452
844000,-1.426944,0.648829,10.579977,2.606562,15.445134,2.690337
848000,-1.510741,0.409408,10.807426,1.125646,11.109256,3.423162
852000,-1.453280,0.502782,10.793061,0.011142,8.132157,4.369727
856000,-1.446098,0.526724,10.874464,-1.194965,4.727577,5.102551
860000,-1.314417,0.361524,11.180922,-1.820919,1.582539,5.972780
864000,-1.254562,0.378284,11.401189,-2.034660,-0.188453,6.751406
868000,-0.991199,0.351948,11.425131,-2.217866,0.193226,7.545299
872000,-0.883460,0.270545,11.599907,-1.469774,1.506203,8.018581
876000,-0.706290,0.146046,11.812991,0.408088,2.742844,8.858275
880000,-0.548272,0.045490,11.812991,2.377554,4.635974,9.423162
884000,-0.277727,0.186748,11.714828,3.553127,7.490936,9.453695
888000,-0.090980,0.088585,11.796232,4.591295,9.948951,8.781940
892000,-0.373495,0.270545,11.645397,5.889005,10.391699,8.522398
896000,-0.438139,0.143652,11.571177,6.270684,9.613073,8.736138
900000,-0.438139,0.325611,11.470620,6.713432,8.590172,8.461329
904000,-0.529119,0.368707,11.377247,6.988241,7.918417,7.972780
908000,-0.751779,0.325611,11.070788,7.003509,7.582539,8.278123
912000,-1.034295,0.299275,11.030087,6.576027,6.391699,8.400260
916000,-1.429338,0.452504,11.073183,5.889005,4.101623,10.018581
920000,-1.393425,0.459687,11.178528,5.537859,1.811547,11.530031
924000,-1.175553,0.454898,11.216835,5.537859,-0.035782,12.186520
928000,-1.103727,0.395043,11.317391,6.179081,-0.646469,12.797207
932000,-0.893037,0.529119,11.025299,6.728699,-0.615934,13.499497
936000,-0.830788,0.486023,10.900801,6.698165,-0.967079,13.453695
940000,-0.883460,0.497994,10.867282,6.972974,-1.974713,13.621634
944000,-0.933739,0.577003,10.826580,6.423356,-4.463263,14.415527
948000,-0.703895,0.500388,10.802638,5.751600,-7.593033,14.843008
952000,-0.584185,0.387861,10.893618,5.430989,-9.867843,14.552932
956000,-0.454898,0.407014,10.848128,4.606562,-10.738072,14.491863
960000,-0.222661,0.325611,10.893618,3.827936,-9.944179,14.843008
964000,-0.095768,0.215478,11.101913,3.217249,-7.104484,15.072016
968000,0.004788,0.186748,11.286267,3.598928,-3.364026,14.583467
972000,0.040701,0.126893,11.441890,4.087478,-0.066316,14.262856
976000,-0.059855,-0.009577,11.666945,4.652363,1.689409,14.049115
980000,-0.189142,-0.023942,11.882423,5.782134,2.223760,13.697970
984000,-0.215478,-0.011971,11.987768,6.698165,0.071089,13.514764
988000,-0.119710,-0.086191,12.011710,7.995874,-2.035782,13.072016
992000,0.002394,-0.095768,11.789049,9.125646,-3.425095,12.476596
996000,-0.016759,-0.050278,11.602302,9.659997,-3.226621,11.697970
1000000,-0.052672,-0.009577,11.535264,9.934806,-3.028148,11.117818
1004000,-0.241814,0.007183,11.307815,10.270684,-3.440362,10.781940
1008000,-0.361524,0.102951,11.262324,10.240149,-4.035782,10.614001
1012000,-0.304064,0.191536,11.068395,10.316485,-4.035782,10.400260
1016000,-0.330400,0.251391,10.831368,10.011142,-3.531965,10.430795
1020000,-0.361524,0.325611,10.840945,9.827936,-3.073950,10.293390
1024000,-0.395043,0.378284,10.797850,9.568394,-3.547232,10.293390
1028000,-0.512359,0.426168,10.697293,9.492058,-4.615934,10.125451
1032000,-0.483629,0.411803,10.527305,9.125646,-6.081583,10.171253
1036000,-0.426168,0.512359,10.441113,8.270684,-7.837308,10.003314
1040000,-0.361524,0.423774,10.417171,7.690531,-9.089217,9.667436
1044000,-0.289698,0.469264,10.295067,7.110379,-8.921278,9.362092
1048000,-0.186748,0.402226,10.323798,6.560760,-6.936545,8.781940
1052000,-0.033519,0.462081,10.328587,6.377554,-4.051049,8.629268
1056000,0.050278,0.445322,10.409989,6.621829,0.025287,8.491863
1060000,0.086191,0.565032,10.488997,7.125646,3.750478,7.514764
1064000,0.016759,0.483629,10.675745,7.843203,7.322997,7.117818
1068000,-0.129287,0.524330,10.735600,8.637096,8.681775,6.629269
1072000,-0.342371,0.519542,10.666168,9.263050,8.788646,6.446063
1076000,-0.342371,0.569820,10.534488,9.430989,8.101623,6.384994
1080000,-0.289698,0.572214,10.371682,9.369921,8.101623,6.293391
1084000,-0.071826,0.593762,10.357317,9.034042,8.697042,5.697971
1088000,-0.093374,0.514753,10.333375,8.118012,9.246661,5.026215
1092000,-0.296881,0.483629,10.565612,7.583661,7.399333,4.888811
1096000,-0.260968,0.445322,10.819398,6.911905,3.735211,5.041482
1100000,-0.213084,0.402226,10.845734,6.056943,0.513837,4.384994
1104000,-0.210690,0.497994,10.963050,5.873737,-0.509064,3.331558
1108000,-0.464475,0.531513,10.936713,6.423356,-0.447995,2.568200
1112000,-0.756568,0.565032,10.915166,7.201982,0.987119,2.766673
1116000,-0.964863,0.526724,10.872070,8.194348,4.086356,3.087284
1120000,-1.199495,0.569820,10.891224,9.095112,6.376432,4.339192
1124000,-1.261744,0.577003,11.049241,9.614196,6.605440,5.239955
1128000,-1.350330,0.612916,11.049241,9.950073,5.307730,6.247589
1132000,-1.312023,0.634463,10.864887,9.980608,3.414600,7.026215
1136000,-1.036689,0.667982,10.503363,9.095112,2.773379,7.575834
1140000,-0.928950,0.603339,10.354922,7.782134,3.506203,7.713238
1144000,-0.684742,0.691924,10.213664,6.621829,5.567272,7.820108
1148000,-0.543484,0.622492,10.302250,5.659997,7.414600,7.468963
1152000,-0.533907,0.622492,10.307038,5.201982,9.552004,7.148353
1156000,-0.531513,0.567426,10.479421,4.682898,10.498569,6.888811
1160000,-0.502782,0.593762,10.649409,4.285951,10.529103,6.888811
1164000,-0.500388,0.581791,10.936713,4.438623,9.903150,6.568200
1168000,-0.517148,0.517148,10.893618,5.034043,9.460402,6.491864
1172000,-0.387861,0.476446,10.862494,5.766867,10.391699,6.446063
1176000,-0.280122,0.466869,10.747571,5.858470,12.361164,6.201787
1180000,-0.019154,0.457293,10.840945,5.263051,15.277195,5.697971
1184000,-0.033519,0.320823,11.054029,5.507325,17.338264,5.362093
1188000,-0.045490,0.342371,11.214440,5.629463,17.597805,5.270490
1192000,0.021548,0.316035,11.267113,5.721066,16.895515,4.858276
1196000,0.069432,0.308852,11.250354,6.423356,16.177958,3.911711
1200000,-0.019154,0.347159,11.013328,6.423356,15.903149,3.285757
1204000,-0.380678,0.363919,10.939108,6.331753,14.895515,3.148352
1208000,-0.411803,0.258574,10.998962,5.614195,12.941318,3.774307
1212000,-0.332794,0.368707,11.030087,4.728699,11.277195,3.789574
1216000,-0.280122,0.418985,11.082760,4.453890,9.674142,3.575833
1220000,-0.301669,0.433351,11.149797,4.301219,8.452767,2.583467
1224000,-0.553061,0.509965,11.089942,3.843203,6.803913,2.278123
1228000,-0.780510,0.428562,10.965444,4.209615,4.849715,2.552932
1232000,-0.883460,0.495600,10.960655,4.041677,3.933684,2.980413
1236000,-0.770933,0.490811,10.778696,3.583661,4.391699,3.362093
1240000,-0.727837,0.409408,10.979809,4.133279,4.605440,3.820108
1244000,-0.543484,0.486023,10.960655,4.453890,4.651241,4.079650
1248000,-0.074220,0.600945,10.773908,5.156180,8.300096,3.743773
1252000,-0.512359,0.579397,10.714052,5.140913,10.132157,3.530032
1256000,-0.572214,0.490811,10.884041,5.339386,10.605439,3.728505
1260000,-0.533907,0.454898,10.948685,6.072211,10.010019,4.262856
1264000,-0.244209,0.407014,10.723629,6.423356,11.155058,4.247589
1268000,-0.052672,0.483629,10.601525,6.453890,13.567271,3.743773
1272000,0.031125,0.612916,10.666168,6.560760,16.239027,3.041482
1276000,-0.031125,0.608127,10.678140,6.209615,17.322996,2.293390
1280000,-0.292093,0.622492,10.886436,6.255417,16.055820,1.682703
1284000,-0.421380,0.687136,11.003751,6.423356,13.216126,1.255223
1288000,-0.500388,0.641646,10.975020,6.743966,9.796279,0.843009
1292000,-0.493206,0.641646,10.749966,7.034043,8.040554,0.675070
1296000,-0.464475,0.679953,10.500969,6.881371,8.132157,0.384994
1300000,-0.471658,0.689530,10.481815,6.194348,8.987119,0.064383
1304000,-0.562637,0.651223,10.532093,5.369921,10.223760,-0.286762
1308000,-0.756568,0.617704,10.737994,4.194348,9.735210,-0.271495
1312000,-1.046266,0.610521,11.008539,3.537859,7.842081,-0.073022
1316000,-1.118092,0.581791,11.204864,3.659997,4.849715,0.446062
1320000,-1.240196,0.553061,11.281479,3.644730,2.559638,0.934612
1324000,-1.235408,0.620098,11.343728,4.240149,1.658875,1.362093
1328000,-1.108515,0.617704,11.291056,5.171447,1.903150,2.094917
1332000,-1.086968,0.679953,11.281479,6.255417,2.941318,2.675070
1336000,-1.132457,0.751779,11.123461,7.568394,3.964219,3.087284
1340000,-1.113304,0.840365,11.049241,8.377554,4.574905,3.468963
1344000,-1.017536,0.823605,10.807426,8.820302,4.758111,3.957513
1348000,-1.000776,0.761356,10.544065,8.530226,4.697043,4.262856
1352000,-0.945710,0.797269,10.247183,7.705798,4.880249,4.461329
1356000,-0.861913,0.876278,10.172963,6.545493,4.987119,4.476597
1360000,-0.804452,0.828394,10.010158,5.079844,5.704677,4.827742
1364000,-0.689530,0.849942,9.959879,3.995875,6.666509,5.056749
1368000,-0.694318,0.826000,10.005369,2.927173,8.315363,5.575833
1372000,-0.538695,0.730232,10.036493,1.995875,9.765745,5.682703
1376000,-0.435745,0.691924,10.072407,0.927172,10.590172,5.285757
1380000,-0.335188,0.725443,10.149021,-0.370538,10.987119,4.995681
1384000,-0.268151,0.708684,10.268731,-1.820919,10.880248,4.354459
1388000,-0.411803,0.608127,10.675745,-3.317102,9.536737,3.606368
1392000,-0.610521,0.610521,10.984597,-4.278934,8.345898,2.827742
1396000,-0.706290,0.579397,11.180922,-4.324736,7.002387,2.720871
1400000,-0.766145,0.488417,11.398794,-3.500308,7.399333,2.995681
1404000,-0.684742,0.553061,11.513716,-2.736950,8.926050,3.453696
1408000,-0.629675,0.555455,11.688493,-1.423972,10.177958,3.621635
1412000,-0.725443,0.584185,11.851298,-0.095728,9.414599,3.484231
1416000,-0.921768,0.598550,11.798626,0.866104,7.307730,2.995681
1420000,-1.161188,0.584185,11.585542,1.354653,4.177959,2.858276
1424000,-1.367089,0.517148,11.465832,1.446256,1.613073,3.133085
1428000,-1.383849,0.639252,11.374852,0.850837,-0.799140,3.804841
1432000,-1.359907,0.603339,11.370064,0.789768,-2.554866,4.919345
1436000,-1.307234,0.531513,11.592725,1.293585,-3.486163,5.957513
1440000,-1.065420,0.600945,11.583148,2.484425,-3.745705,6.430795
1444000,-0.881066,0.598550,11.470620,3.278317,-2.738072,6.720871
1448000,-0.744597,0.651223,11.281479,3.995875,-1.058682,7.148353
1452000,-0.562637,0.612916,11.008539,4.499691,0.376432,6.995681
1456000,-0.438139,0.615310,10.814610,4.743967,1.292463,6.476597
1460000,-0.553061,0.646434,10.749966,4.469157,1.307730,5.667437
1464000,-0.675165,0.792481,10.486604,3.980608,1.200860,5.117818
1468000,-0.943315,0.768539,10.465055,3.354653,-0.096850,4.583467
1472000,-1.201889,0.890643,10.481815,2.942440,-1.715171,5.178887
1476000,-1.398214,0.976834,10.330980,2.331753,-2.646469,5.865910
1480000,-1.343147,0.854730,10.189722,1.751600,-2.371660,6.843009
1484000,-1.304840,0.964863,9.964667,0.805035,-2.234255,8.125451
1488000,-1.187524,1.036689,9.904813,-0.507942,-2.524331,8.552932
1492000,-1.058237,1.022324,9.940725,-2.187331,-3.577766,8.766672
1496000,-1.039083,1.022324,10.101137,-3.912522,-4.646469,8.720871
1500000,-0.916979,0.948104,10.287885,-5.256034,-5.928911,8.278123
1504000,-0.780510,0.969652,10.469844,-5.775118,-6.188453,7.942246
1508000,-0.696713,1.005565,10.668563,-5.469774,-5.364026,7.636902
1512000,-0.562637,0.979228,10.855310,-4.049927,-3.257156,7.178887
1516000,-0.739808,0.869095,11.054029,-2.675881,-1.135018,6.690337
1520000,-0.926556,0.806846,11.154586,-0.965957,-1.196087,6.812475
1524000,-1.041478,0.900220,11.101913,0.102745,-1.593034,6.858276
1528000,-0.809240,0.799663,11.094730,0.637096,-1.623568,6.980413
1532000,-0.641646,0.761356,10.958261,0.911905,0.681776,6.797207
1536000,-0.548272,0.727837,10.963050,1.232516,3.658875,6.644536
1540000,-0.502782,0.689530,11.080365,1.492058,6.269562,6.598734
1544000,-0.457293,0.679953,11.204864,2.255417,8.376431,6.522398
1548000,-0.577003,0.636858,11.216835,2.850837,9.200859,6.308658
1552000,-0.713472,0.658405,11.264719,3.247783,8.926050,5.896444
1556000,-0.823605,0.718261,11.077971,3.751600,7.200860,5.759039
1560000,-0.876278,0.632069,10.939108,3.675264,5.368799,5.743773
1564000,-0.730232,0.593762,10.833763,3.125646,3.643608,5.652169
1568000,-0.586579,0.562637,10.702082,2.301218,1.979486,5.117818
1572000,-0.660800,0.579397,10.517728,0.911905,0.010020,4.690337
1576000,-0.562637,0.711078,10.474632,-0.660614,-1.791507,3.881177
1580000,-0.521936,0.711078,10.405201,-2.614812,-2.722805,3.331558
1584000,-0.584185,0.656011,10.572795,-4.110995,-2.570133,2.278123
1588000,-0.667982,0.689530,10.699687,-5.317102,-1.425095,1.881177
1592000,-0.957681,0.670376,11.121067,-5.683515,-0.402194,1.316291
1596000,-1.125275,0.596156,11.370064,-5.256034,-0.341125,1.438429
1600000,-1.400608,0.586579,11.609484,-4.370538,-0.249522,1.545299
1604000,-1.656788,0.531513,11.808203,-2.660614,-1.699904,2.201787
1608000,-1.618480,0.550666,11.982980,-1.423972,-2.646469,3.102551
1612000,-1.448492,0.533907,11.985373,0.041676,-2.936545,3.621635
1616000,-1.407791,0.486023,12.109872,1.537859,-1.547232,4.094917
1620000,-1.302446,0.526724,11.935096,3.598928,0.040554,4.629269
1624000,-1.288081,0.565032,11.860875,5.354653,1.521470,5.117818
1628000,-1.173159,0.526724,11.700463,7.186714,3.399333,5.682703
1632000,-0.981623,0.581791,11.566388,8.011142,4.987119,6.033849
1636000,-0.842759,0.533907,11.475409,8.789768,6.819180,5.896444
1640000,-0.727837,0.612916,11.403583,9.690532,7.811547,5.545299
1644000,-0.675165,0.629675,11.235989,10.728700,8.071088,5.072017
1648000,-0.682347,0.660800,10.922348,11.095112,8.635974,4.247589
1652000,-0.723049,0.744597,10.522516,11.369921,8.819180,3.530032
1656000,-1.039083,0.746991,10.196905,10.438622,7.842081,3.148352
1660000,-1.158794,0.744597,9.983821,8.041677,4.666509,2.873543
1664000,-1.297657,0.802058,9.916783,4.743967,-0.264789,3.087284
1668000,-1.225831,0.679953,10.036493,1.079844,-5.730438,3.423162
1672000,-1.098939,0.658405,10.156203,-2.477408,-9.898377,3.759039
1676000,-0.933739,0.545878,10.647015,-5.225499,-11.669370,3.728505
1680000,-0.905008,0.584185,11.082760,-5.393438,-10.570133,3.865910
1684000,-0.976834,0.526724,11.456255,-4.599545,-7.547232,3.835375
1688000,-1.074997,0.471658,11.580753,-2.172064,-3.577766,4.262856
1692000,-1.108515,0.476446,11.611878,0.530226,0.162692,5.133085
1696000,-1.063026,0.593762,11.578360,2.866104,2.620707,5.407895
1700000,-1.060631,0.557849,11.511322,4.514959,3.307730,5.545299
1704000,-0.986411,0.474052,11.300632,5.537859,1.689409,4.995681
1708000,-0.926556,0.478840,10.917560,5.430989,-0.005247,4.781940
1712000,-0.821211,0.457293,10.711658,3.919539,-0.860209,4.614001
1716000,-0.849942,0.390255,10.694899,2.209615,-0.203721,4.415528
1720000,-0.852336,0.380678,10.769119,1.217249,0.055821,4.843009
1724000,-0.914585,0.284910,11.106702,0.698165,-0.799140,5.133085
1728000,-0.814029,0.222661,11.140221,1.171447,-2.417461,5.377360
1732000,-0.620098,0.375890,11.291056,2.118012,-4.631201,5.713238
1736000,-0.462081,0.316035,10.979809,1.278317,-4.936545,4.781940
1740000,-0.505177,0.268151,10.998962,0.621829,-4.631201,4.262856
1744000,-0.622492,0.256180,11.279084,1.369921,-4.844942,3.682703
1748000,-0.581791,0.335188,11.504139,2.499691,-5.135018,3.331558
1752000,-0.347159,0.289698,11.417948,3.766867,-3.425095,3.102551
1756000,-0.272939,0.330400,11.386824,6.072211,0.773379,2.476597
1760000,-0.359130,0.313640,11.080365,7.659997,4.742845,2.720871
1764000,-0.462081,0.349553,11.145009,8.621829,6.208493,2.552932
1768000,-0.632069,0.536301,10.912771,8.820302,5.445135,2.232322
1772000,-0.758962,0.612916,10.670957,8.148546,3.093989,1.759039
1776000,-0.936133,0.665588,10.553641,6.927173,-1.211354,1.239955
1780000,-0.984017,0.677559,10.374076,5.079844,-4.249522,1.026215
1784000,-0.981623,0.675165,10.323798,3.782134,-5.119751,1.438429
1788000,-0.900220,0.708684,10.409989,2.911905,-4.280056,1.804841
1792000,-0.938527,0.770933,10.522516,3.049310,-1.348759,2.201787
1796000,-0.833182,0.758962,10.534488,3.904272,0.956585,2.812474
1800000,-0.711078,0.787692,10.503363,4.392821,3.445134,2.797207
1804000,-0.718261,0.691924,10.374076,4.179081,5.185593,2.568200
1808000,-0.802058,0.699107,10.299856,3.507325,6.391699,2.430795
1812000,-0.852336,0.699107,10.491392,2.362287,5.200860,2.201787
1816000,-0.857124,0.720655,10.658986,1.934806,3.796279,1.606368
1820000,-0.785298,0.711078,10.730812,2.011142,2.193226,1.453696
1824000,-0.847547,0.617704,10.749966,2.408089,1.521470,1.102551
1828000,-0.938527,0.636858,10.723629,2.866104,1.552005,0.965146
1832000,-0.979228,0.608127,10.658986,2.774501,2.864982,0.812474
1836000,-1.034295,0.644040,10.711658,2.667631,4.391699,1.560566
1840000,-0.897826,0.636858,10.848128,2.392821,6.086356,1.820108
1844000,-0.916979,0.557849,10.989386,2.698165,7.200860,1.636902
1848000,-0.931344,0.565032,10.982203,3.492058,7.872615,1.606368
1852000,-0.972046,0.646434,10.876859,4.087478,7.231394,1.636902
1856000,-1.101333,0.725443,10.817003,4.438623,6.040555,1.820108
1860000,-1.113304,0.761356,10.591949,4.408089,4.269562,1.652169
1864000,-1.084573,0.842759,10.421960,3.782134,2.773379,1.392627
1868000,-1.077391,0.840365,10.295067,2.988241,1.048188,1.392627
1872000,-0.955287,0.885855,10.259154,2.682898,-0.432728,1.041482
1876000,-0.766145,0.945710,10.089166,1.522592,-0.386927,0.568200
1880000,-0.701501,0.916979,10.012551,0.820302,0.376432,0.033849
1884000,-0.775721,0.864307,10.115502,0.377554,1.735211,-0.027220
1888000,-0.636858,1.029507,9.945514,-0.385804,4.147425,-0.454701
1892000,-0.521936,0.921768,10.259154,-0.981224,7.521471,-0.760045
1896000,-0.521936,0.854730,10.374076,-0.492675,10.315363,-1.309663
1900000,-0.720655,0.830788,10.486604,-0.278934,11.521470,-1.553938
1904000,-0.794875,0.852336,10.630256,-0.156797,11.521470,-1.676075
1908000,-1.048660,0.866701,10.747571,0.667630,10.132157,-1.645541
1912000,-1.168370,0.845153,10.579977,1.430989,8.819180,-1.844014
1916000,-1.383849,0.907402,10.450690,1.492058,8.147424,-1.721877
1920000,-1.443704,0.945710,10.259154,1.492058,7.887883,-1.263861
1924000,-1.517924,0.952892,10.137050,1.003508,8.193226,-0.469968
1928000,-1.398214,1.101333,10.079589,0.026409,9.490935,0.369726
1932000,-1.355118,0.988805,9.907207,-0.645346,10.498569,0.675070
1936000,-1.283292,1.077391,9.900024,-1.423972,11.597806,0.843009
1940000,-1.338359,1.015141,9.895236,-2.126262,11.429867,0.980413
1944000,-1.441309,1.031901,10.034100,-2.569010,9.582539,1.133085
1948000,-1.436521,1.053449,9.830592,-3.607178,6.987119,1.301024
1952000,-1.443704,1.144428,9.945514,-4.614813,4.468035,0.995681
1956000,-1.563414,1.051055,9.916783,-5.897255,2.651241,0.705604
1960000,-1.563414,1.074997,9.811439,-6.904889,1.750478,0.568200
1964000,-1.656788,0.962469,9.938332,-7.485042,0.468035,0.720871
1968000,-1.738190,0.885855,10.062830,-7.927790,0.269562,1.407894
1972000,-1.651999,0.833182,10.132261,-8.584278,0.849715,2.079650
1976000,-1.529895,0.715866,10.299856,-9.118629,2.697043,2.690337
1980000,-1.460463,0.610521,10.426748,-9.408706,5.613073,2.965146
1984000,-1.414973,0.524330,10.584765,-9.637713,9.002386,3.285757
1988000,-1.242591,0.426168,10.702082,-9.439240,12.605439,3.774307
1992000,-1.230620,0.325611,10.939108,-9.301835,16.208492,3.759039
1996000,-1.288081,0.318429,11.233594,-8.736950,18.773378,3.804841
