time_us,ax,ay,az,gx,gy,gz
0,-0.014365,0.359130,10.953473,-1.103362,-0.951812,0.949879
4000,0.308852,0.454898,10.716447,-1.469774,3.658875,0.995681
8000,0.131681,0.347159,11.365275,1.598928,1.781012,0.384994
12000,-0.165200,0.464475,10.941502,0.637096,1.078722,1.407894
16000,-0.158017,0.409408,11.101913,1.675264,0.880249,1.896444
20000,0.220267,0.414197,11.013328,1.492058,0.040554,1.850642
24000,0.356736,0.371101,10.876859,1.171447,0.513837,1.026215
28000,0.373495,0.282516,10.917560,1.232516,0.666508,0.125452
32000,0.282516,0.344765,10.931925,1.217249,1.032921,-0.821113
36000,0.189142,0.323217,10.896012,1.186714,0.147424,-1.355464
40000,0.057461,0.409408,10.828975,0.927172,-0.844942,-1.706609
44000,-0.071826,0.371101,10.802638,0.041676,-1.486163,-1.691342
48000,-0.081403,0.407014,10.805033,-0.874354,-2.509064,-1.889816
52000,-0.141258,0.488417,10.826580,-1.698782,-3.333492,-1.981419
56000,-0.220267,0.493206,10.826580,-2.446873,-4.478529,-1.706609
60000,-0.268151,0.486023,11.061212,-3.011759,-5.531965,-1.523403
64000,-0.248997,0.447716,11.087548,-2.523209,-5.791507,-1.095922
68000,-0.213084,0.308852,11.137826,-2.416339,-4.890743,-0.943251
72000,-0.167594,0.414197,11.044453,-1.744583,-4.066316,-0.683709
76000,-0.198719,0.368707,11.044453,-1.622446,-3.058682,-0.469968
80000,-0.136469,0.409408,10.972627,-1.851454,-2.829675,-0.485235
84000,-0.129287,0.411803,11.106702,-2.523209,-3.089217,-0.958518
88000,-0.198719,0.375890,11.252748,-2.736950,-3.928911,-0.927984
92000,-0.234632,0.392649,11.303026,-2.324736,-4.203721,-0.775312
96000,-0.277727,0.344765,11.319786,-1.439240,-3.852576,-0.302029
100000,-0.378284,0.402226,11.121067,-0.294202,-2.478530,0.339192
104000,-0.304064,0.418985,11.030087,-0.141530,-1.394560,1.072016
108000,-0.373495,0.466869,11.046846,0.072211,-0.951812,1.911711
112000,-0.332794,0.569820,11.022904,-0.172064,-1.257156,2.384994
116000,-0.270545,0.519542,10.951078,-0.767484,-2.142652,2.781940
120000,-0.205901,0.514753,10.922348,-1.210232,-2.173186,3.117818
124000,-0.198719,0.399832,10.984597,-1.225499,-1.516698,3.621635
128000,-0.081403,0.363919,11.020511,-1.164430,-0.478530,4.064383
132000,-0.079009,0.335188,11.204864,-0.904888,0.635974,4.155986
136000,-0.031125,0.361524,11.164163,-0.462140,0.010020,4.247589
140000,-0.019154,0.474052,11.353305,-0.187331,-1.302957,4.430795
144000,0.143652,0.383072,11.314998,-0.110996,-2.417461,4.201787
148000,0.337582,0.354342,11.240777,0.392821,-3.196087,3.713238
152000,0.476446,0.392649,11.185710,1.095111,-2.921278,3.072016
156000,0.533907,0.318429,11.137826,1.873737,-1.684637,1.850642
160000,0.533907,0.414197,10.907983,2.469157,-0.951812,0.659803
164000,0.392649,0.435745,10.893618,2.255417,-0.936545,-0.210426
168000,0.294487,0.486023,10.828975,1.644730,-1.486163,-1.248594
172000,0.059855,0.639252,10.747571,1.171447,-2.218988,-1.737144
176000,-0.011971,0.653617,10.718841,0.423356,-2.982346,-1.920350
180000,-0.102951,0.699107,10.661380,0.179081,-3.562499,-1.630274
184000,-0.126893,0.679953,10.716447,0.285951,-3.287690,-1.141724
188000,-0.172383,0.756568,10.742783,0.423356,-2.539598,-0.408900
192000,-0.126893,0.727837,10.675745,0.850837,-1.455629,0.415528
196000,-0.098162,0.703895,10.759542,1.324119,-0.218988,0.858276
200000,-0.052672,0.778116,10.718841,1.537859,0.345898,1.560566
204000,-0.033519,0.742203,10.764331,1.675264,0.468035,1.621635
208000,-0.002394,0.691924,10.809821,1.873737,0.544371,1.926978
212000,0.045490,0.632069,10.826580,2.576027,0.483302,2.171253
216000,-0.110133,0.684742,10.623073,3.064577,0.590173,2.430795
220000,-0.033519,0.663194,10.419566,2.377554,0.834447,3.026215
224000,0.122104,0.608127,10.335769,1.430989,0.849715,3.209421
228000,0.122104,0.641646,10.500969,0.408088,0.361165,2.995681
232000,0.184354,0.656011,10.594342,-0.691148,-0.081583,2.690337
236000,0.177171,0.636858,10.678140,-1.423972,-0.280056,2.384994
240000,0.179565,0.641646,10.759542,-1.362904,-0.188453,2.110184
244000,0.172383,0.550666,10.927136,-0.645346,0.406966,1.881177
248000,0.165200,0.538695,11.008539,-0.156797,1.261928,1.820108
252000,0.107739,0.462081,10.991780,1.125646,1.811547,1.591100
256000,0.050278,0.507571,10.963050,1.812669,2.895516,1.362093
260000,0.021548,0.569820,10.979809,2.072211,3.552005,1.407894
264000,-0.028730,0.656011,10.979809,2.163814,3.109257,1.682703
268000,-0.002394,0.519542,10.936713,1.797401,2.177959,1.621635
272000,0.129287,0.452504,10.960655,1.751600,1.093989,1.545299
276000,0.270545,0.457293,10.843340,1.140913,0.574905,1.682703
280000,0.241814,0.474052,10.955867,0.743966,-0.081583,1.133085
284000,0.337582,0.390255,10.807426,0.331753,-0.386927,0.766673
288000,0.320823,0.414197,10.766725,0.270684,-0.677003,0.049116
292000,0.385466,0.308852,10.687716,-0.584278,-0.921278,-0.882182
296000,0.387861,0.368707,10.718841,-1.210232,-0.539598,-2.103556
300000,0.198719,0.421380,10.788273,-1.256034,-0.783873,-2.851648
304000,0.081403,0.531513,10.860099,-1.576644,-1.043415,-3.477602
308000,-0.136469,0.483629,10.903194,-1.271301,-0.631201,-3.141724
312000,-0.301669,0.541090,10.946290,-0.691148,-0.188453,-2.882182
316000,-0.545878,0.667982,10.958261,-0.217866,0.315363,-1.660808
320000,-0.569820,0.699107,10.793061,0.240150,0.559638,-0.515770
324000,-0.562637,0.735020,10.874464,0.194348,1.506203,0.675070
328000,-0.531513,0.634463,10.771513,-0.202598,1.994753,1.621635
332000,-0.447716,0.682347,10.747571,-0.706415,2.422234,2.323925
336000,-0.416591,0.656011,10.874464,-1.118629,2.208493,2.583467
340000,-0.447716,0.735020,10.860099,-0.828552,2.223760,3.163620
344000,-0.402226,0.644040,10.972627,-0.859087,1.979486,3.575833
348000,-0.311246,0.620098,11.042058,-0.691148,1.582539,3.865910
352000,-0.210690,0.610521,11.063606,-0.278934,1.689409,4.155986
356000,-0.129287,0.622492,11.207258,0.194348,1.185592,4.125452
360000,-0.038307,0.658405,11.116279,0.972974,0.254295,3.759039
364000,0.011971,0.694318,10.955867,1.018775,-0.890743,3.652169
368000,0.102951,0.739808,10.869676,0.453890,-2.142652,3.301024
372000,0.062249,0.727837,10.745177,-0.507942,-3.837308,2.827742
376000,0.184354,0.713472,10.704475,-1.652980,-6.280056,2.186520
380000,0.275333,0.790087,10.613496,-3.011759,-8.997614,1.453696
384000,0.263362,0.787692,10.556035,-4.049927,-11.043416,0.965146
388000,0.330400,0.866701,10.338163,-5.759851,-12.661736,0.308658
392000,0.373495,0.940921,10.314221,-7.378171,-13.135018,-0.195159
396000,0.421380,1.029507,10.295067,-8.752217,-14.402194,-0.805846
400000,0.330400,1.024718,10.110714,-9.958323,-14.997614,-1.645541
404000,0.143652,1.041478,10.177752,-11.820919,-15.119752,-1.920350
408000,0.112527,1.127669,10.295067,-13.485042,-14.860209,-1.798213
412000,0.100556,1.149217,10.582372,-13.973592,-14.051049,-1.492869
416000,0.035913,1.043872,10.867282,-13.973592,-12.356393,-1.050121
420000,-0.050278,1.161188,11.070788,-12.721683,-9.241889,-0.576838
424000,-0.146046,1.122881,11.453861,-11.149163,-5.318224,0.278123
428000,-0.248997,1.072602,11.676521,-8.355270,-0.997614,1.209421
432000,-0.328006,0.962469,11.930307,-5.408706,2.590173,2.675070
436000,-0.347159,1.079785,12.172121,-1.866720,4.834447,3.896444
440000,-0.251391,1.000776,12.255919,1.369921,6.773379,4.980413
444000,-0.047884,0.931344,12.088325,4.118012,7.765746,5.377360
448000,0.031125,0.995988,11.968615,5.659997,8.315363,5.377360
452000,0.009577,1.043872,11.678916,6.209615,8.025287,4.659803
456000,0.064643,1.118092,11.298238,6.072211,6.590173,4.033849
460000,-0.057461,1.115698,11.154586,5.140913,4.926051,3.545299
464000,-0.033519,1.115698,11.085154,3.476791,2.437501,3.148352
468000,-0.067038,1.266533,10.831368,2.056943,-0.463263,2.781940
472000,0.033519,1.192312,10.860099,-0.401072,-3.989980,2.858276
476000,0.150835,1.199495,10.809821,-2.355270,-8.356393,2.186520
480000,0.311246,1.221043,10.726024,-4.065194,-13.211354,1.713238
484000,0.624887,1.199495,10.575189,-6.309469,-17.760973,0.644536
488000,0.814029,1.209072,10.350134,-8.416339,-21.486164,-1.401266
492000,0.756568,1.268927,10.240001,-10.798018,-25.730438,-3.477602
496000,0.615310,1.307234,10.105926,-13.027026,-30.020515,-5.172258
500000,0.646434,1.472434,9.947908,-15.133897,-33.638836,-6.637907
504000,0.476446,1.417367,9.955091,-17.011759,-35.608299,-7.798213
508000,0.366313,1.424550,9.935937,-18.660612,-35.302959,-8.073022
512000,0.179565,1.505953,9.813833,-19.332369,-32.035782,-8.271495
516000,-0.363919,1.508347,9.923966,-19.912521,-27.394560,-7.156991
520000,-0.847547,1.431733,10.304645,-19.591911,-22.585400,-4.683709
524000,-1.094150,1.364695,10.773908,-18.706415,-17.669371,-1.538671
528000,-0.981623,1.307234,11.271901,-16.462139,-12.218988,2.507131
532000,-0.816423,1.259350,11.812991,-12.721683,-6.051049,5.881177
536000,-0.493206,1.077391,12.265495,-7.790385,-0.142652,8.537665
540000,-0.284910,0.902614,12.610260,-2.736950,5.994753,10.751406
544000,-0.083797,0.852336,12.751518,2.362287,10.483302,12.110184
548000,0.201113,0.684742,12.768278,7.140913,13.658875,12.751406
552000,0.488417,0.706290,12.665327,11.156180,15.292462,12.659802
556000,0.746991,0.653617,12.550406,14.056943,16.086355,11.392627
560000,0.988805,0.560243,12.299014,15.766867,15.887882,9.575833
564000,0.981623,0.622492,12.258312,15.950073,14.361164,7.270490
568000,0.857124,0.610521,11.999739,15.843203,11.735210,5.484231
572000,0.823605,0.687136,11.920731,14.591294,8.239027,3.789574
576000,0.773327,0.667982,11.801021,12.957706,4.330631,2.537665
580000,0.842759,0.780510,11.717223,11.049310,-0.096850,1.148352
584000,0.907402,0.873884,11.733982,9.675264,-5.119751,-0.302029
588000,0.931344,0.794875,11.688493,8.270684,-9.867843,-2.546304
592000,0.861913,0.926556,11.475409,7.140913,-13.852576,-4.882182
596000,0.687136,0.902614,11.257536,6.072211,-16.570133,-6.897449
600000,0.395043,0.830788,11.192893,5.217249,-18.493797,-8.225694
604000,0.253785,1.043872,10.984597,5.156180,-19.150286,-8.714244
608000,0.191536,1.053449,11.006145,4.652363,-18.875477,-9.187526
612000,0.126893,1.122881,10.912771,5.018775,-16.524332,-9.187526
616000,-0.229843,1.132457,10.685322,4.866104,-13.455629,-9.080656
620000,-0.577003,1.187524,10.517728,4.728699,-9.486164,-8.240961
624000,-0.852336,1.149217,10.656591,4.545493,-6.112117,-6.500503
628000,-1.120486,1.201889,10.611102,4.560760,-2.753339,-3.676075
632000,-1.000776,1.163582,10.788273,4.545493,0.391699,-0.653174
636000,-0.878672,1.137246,11.056423,5.079844,3.536737,1.759039
640000,-0.735020,1.094150,11.377247,6.438623,5.826814,3.621635
644000,-0.548272,1.082179,11.480197,8.026409,8.651241,4.949879
648000,-0.452504,1.101333,11.542446,9.675264,11.903150,5.926979
652000,-0.454898,1.079785,11.602302,11.995874,16.773378,7.072017
656000,-0.390255,1.108515,11.676521,14.530226,21.490936,8.308658
660000,-0.328006,1.165976,11.791444,17.400455,26.239027,9.545299
664000,-0.366313,1.283292,12.112267,20.911905,30.483301,10.598734
668000,-0.306458,1.302446,12.093113,23.873737,33.597805,11.484230
672000,-0.356736,1.292869,12.117055,26.530226,35.658875,12.705604
676000,-0.469264,1.264138,11.982980,28.179081,35.200859,13.911711
680000,-0.543484,1.278504,11.729194,28.240150,32.529102,15.468963
684000,-0.392649,1.233014,11.506534,26.545494,27.781012,16.491865
688000,-0.134075,1.055843,11.135432,23.064577,22.376432,16.781940
692000,0.141258,0.826000,10.996569,18.591295,16.101622,15.942245
696000,0.428562,0.756568,10.785878,13.843203,11.017653,14.904078
700000,0.543484,0.665588,10.996569,9.690532,6.468035,12.980413
704000,0.715866,0.452504,11.233594,6.866104,3.368799,11.301023
708000,0.811634,0.359130,11.470620,5.690531,0.513837,9.224688
712000,0.866701,0.239420,11.580753,5.507325,-1.348759,7.468963
716000,0.881066,0.265756,11.614272,5.766867,-2.386927,5.545299
720000,0.893037,0.277727,11.542446,5.965341,-3.348759,3.621635
724000,0.773327,0.256180,11.525687,6.179081,-5.440361,1.789574
728000,0.584185,0.414197,11.286267,5.919539,-6.234255,0.751406
732000,0.447716,0.371101,11.075577,5.415722,-6.157919,-1.004319
736000,0.289698,0.519542,10.860099,4.621829,-4.035782,-1.401266
740000,0.193930,0.526724,10.915166,5.003509,-0.860209,-1.492869
744000,0.071826,0.538695,10.864887,5.659997,3.918417,-0.744777
748000,-0.019154,0.548272,11.027693,7.934806,9.109256,0.461329
752000,0.131681,0.689530,10.903194,9.965341,15.322997,1.682703
756000,0.107739,0.612916,11.156980,12.408089,22.086355,2.736139
760000,-0.009577,0.694318,11.255142,15.415722,27.689409,3.835375
764000,0.062249,0.775721,11.439496,18.270683,31.750477,4.919345
768000,0.172383,0.617704,11.544841,20.881372,34.803913,5.743773
772000,0.296881,0.811634,11.552023,23.034044,37.231392,6.018581
776000,0.325611,0.663194,11.882423,25.507326,37.170326,4.781940
780000,-0.102951,0.703895,12.097901,28.469158,35.292461,4.064383
784000,-0.311246,0.986411,11.717223,29.476791,32.055820,4.155986
788000,-0.555455,0.648829,11.602302,30.316486,27.964218,4.339192
792000,-0.588974,0.861913,11.056423,29.797401,24.437500,5.407895
796000,-0.402226,0.555455,10.611102,27.675264,20.406965,5.056749
800000,-0.392649,0.306458,10.812215,25.232517,16.498569,4.140719
804000,-0.304064,0.225055,10.450690,20.927174,10.025287,3.804841
808000,-0.088585,0.361524,10.280702,16.347019,1.674142,2.614001
812000,0.047884,0.222661,10.172963,10.835569,-6.967079,0.843009
816000,0.414197,0.244209,10.055647,5.690531,-14.493797,-1.782945
820000,0.423774,0.126893,9.964667,0.270684,-22.295324,-4.821113
824000,0.397437,0.351948,9.612720,-5.805653,-30.417461,-7.706609
828000,0.351948,0.263362,9.765948,-11.530843,-39.241890,-11.111190
832000,0.213084,0.452504,9.708488,-17.515575,-44.646469,-14.485236
836000,-0.177171,0.560243,9.983821,-21.378170,-48.310593,-17.233326
840000,-0.430956,0.553061,9.892841,-23.881987,-49.562500,-18.057755
844000,-0.292093,0.579397,10.484209,-24.004124,-45.302959,-18.424166
848000,-0.995988,0.663194,10.611102,-21.515575,-36.066315,-17.111189
852000,-1.357512,0.567426,11.152191,-17.454506,-26.585400,-14.714244
856000,-1.484405,0.486023,11.271901,-12.965957,-14.478530,-10.302030
860000,-1.522712,0.651223,11.518504,-6.523210,-3.928911,-5.798213
864000,-1.604115,0.569820,11.590330,-0.507942,5.735211,-1.141724
868000,-1.357512,0.679953,11.468226,4.362287,12.101623,3.331558
872000,-1.022324,0.464475,11.571177,9.263050,15.170325,6.003314
876000,-0.806846,0.385466,11.054029,11.430989,17.735210,7.850643
880000,-0.335188,0.509965,10.611102,11.156180,16.116890,8.354459
884000,-0.253785,0.227449,10.249578,9.003509,13.719943,7.881176
888000,-0.131681,0.146046,10.228029,5.659997,8.239027,6.736139
892000,0.062249,0.201113,10.144233,1.782134,2.666508,5.407895
896000,0.162806,0.150835,10.256760,-2.538476,-3.822041,3.820108
900000,0.153229,0.155623,10.371682,-5.515575,-8.906011,2.369726
904000,0.220267,0.292093,10.314221,-8.019393,-12.753339,1.087284
908000,0.225055,0.208296,10.405201,-10.126263,-15.547233,0.155986
912000,0.208296,0.359130,10.414778,-11.576645,-17.302958,-0.744777
916000,0.143652,0.505177,10.443508,-12.599545,-18.814407,-1.126457
920000,-0.134075,0.629675,10.405201,-13.057561,-19.822042,-1.309663
924000,-0.239420,0.742203,10.230424,-13.439240,-19.196087,-1.202793
928000,-0.177171,0.442927,10.024523,-13.286569,-18.615934,-0.576838
932000,-0.667982,0.905008,10.199299,-13.698781,-10.493797,1.453696
936000,-0.926556,0.809240,10.515334,-12.156796,-12.707538,4.247589
940000,-0.634463,0.754174,10.441113,-9.943057,-6.570133,6.751406
944000,-0.766145,0.857124,10.438720,-8.614813,-3.318224,9.407894
948000,-0.703895,0.670376,10.445902,-5.668247,3.002386,12.140718
952000,-0.620098,0.507571,10.383653,-4.172065,4.269562,14.476596
956000,-0.148441,0.502782,10.374076,-2.874354,6.803913,16.522398
960000,0.258574,0.222661,10.285490,-1.744583,8.422234,16.934612
964000,0.493206,0.167594,10.268731,-1.500308,8.559638,16.262857
968000,0.567426,0.033519,10.199299,-3.194965,6.315363,15.194154
972000,0.785298,-0.071826,10.103531,-4.904889,2.132157,13.423162
976000,0.873884,-0.055067,10.125079,-7.347637,-3.211354,11.239955
980000,0.964863,-0.141258,10.120291,-10.416339,-8.463263,7.957512
984000,0.816423,-0.155623,10.218452,-13.393439,-12.738072,5.407895
988000,0.644040,-0.057461,10.110714,-16.034658,-16.661736,2.797207
992000,0.325611,-0.134075,10.369287,-18.172064,-19.974712,1.209421
996000,0.160412,-0.148441,10.465055,-19.943056,-22.081583,0.446062
1000000,0.023942,-0.062249,10.594342,-21.088095,-22.875477,-0.057755
1004000,-0.395043,0.033519,10.639832,-21.927788,-22.936544,0.507131
1008000,-0.667982,-0.043096,10.795456,-22.507942,-22.295324,1.667436
1012000,-0.840365,0.011971,11.042058,-22.477407,-20.447996,3.484231
1016000,-0.864307,-0.009577,11.386824,-21.103361,-18.386927,5.499497
1020000,-0.890643,0.043096,11.643003,-18.981224,-15.348759,7.759039
1024000,-0.940921,-0.040701,11.767501,-15.805652,-12.081584,10.232322
1028000,-0.885855,-0.100556,11.896789,-12.569011,-8.738072,12.507131
1032000,-0.787692,-0.126893,11.947066,-9.881988,-6.600667,14.476596
1036000,-0.553061,-0.153229,11.985373,-7.423973,-5.165553,15.667436
1040000,-0.316035,-0.248997,11.829751,-5.423973,-4.677003,16.323925
1044000,-0.205901,-0.270545,11.767501,-3.408705,-4.967079,16.171253
1048000,-0.052672,-0.270545,11.475409,-2.248400,-5.593033,16.140718
1052000,0.035913,-0.469264,11.154586,-2.019392,-5.822041,15.728505
1056000,0.253785,-0.560243,10.953473,-2.645346,-5.760972,15.148352
1060000,0.349553,-0.644040,10.929531,-3.454507,-6.509064,14.033848
1064000,0.407014,-0.555455,10.862494,-5.027026,-8.264790,12.858275
1068000,0.296881,-0.514753,10.965444,-6.981225,-10.600668,12.003314
1072000,0.105345,-0.555455,11.135432,-8.691149,-13.730438,11.881176
1076000,0.057461,-0.445322,11.118672,-9.836186,-16.524332,12.110184
1080000,0.205901,-0.497994,11.137826,-11.179698,-18.295324,12.476596
1084000,0.445322,-0.550666,11.173739,-11.729317,-18.188454,12.446062
1088000,0.533907,-0.495600,11.384429,-11.164431,-17.974712,11.652169
1092000,0.617704,-0.548272,11.477803,-10.340003,-17.302958,10.415527
1096000,0.620098,-0.598550,11.250354,-9.652981,-16.371660,9.072016
1100000,0.433351,-0.634463,11.003751,-8.675881,-14.692270,8.079650
1104000,0.308852,-0.608127,10.682928,-9.057561,-13.470897,7.270490
1108000,0.462081,-0.490811,10.469844,-9.958323,-12.615934,6.155986
1112000,0.349553,-0.435745,10.726024,-10.233133,-14.524332,4.781940
1116000,0.062249,-0.328006,10.465055,-11.958323,-16.631203,3.881177
1120000,-0.186748,-0.158017,10.326192,-13.469775,-16.967079,3.774307
1124000,-0.222661,-0.028730,10.058042,-14.263667,-14.493797,4.033849
1128000,-0.512359,0.021548,10.369287,-12.767484,-10.844942,5.255223
1132000,-0.773327,0.246603,10.225636,-11.393438,-5.959445,7.270490
1136000,-0.469264,0.246603,10.587160,-9.729317,-1.012881,8.659802
1140000,-1.019930,0.114922,10.546458,-6.278934,5.048188,10.552932
1144000,-1.254562,0.328006,10.213664,-4.110995,11.292462,13.667436
1148000,-1.508347,0.325611,9.935937,-2.340003,15.109256,18.155987
1152000,-1.371878,0.258574,9.830592,-2.202598,17.628340,22.598734
1156000,-1.031901,0.086191,9.840169,-2.859087,19.948952,25.728506
1160000,-0.792481,-0.009577,10.048465,-4.813286,19.231394,28.659803
1164000,-0.670376,-0.232238,10.247183,-7.210233,16.010019,30.827742
1168000,-0.284910,-0.399832,10.606314,-8.950690,11.261928,32.797207
1172000,0.294487,-0.737414,10.857705,-10.584278,6.620707,34.079651
1176000,0.974440,-1.055843,11.140221,-11.485042,1.582539,33.881176
1180000,1.247379,-1.357512,11.355699,-12.248401,-6.005247,32.049118
1184000,1.865083,-1.443704,11.355699,-13.607179,-12.524332,29.362093
1188000,2.679112,-1.608904,11.250354,-14.584277,-16.906012,24.781940
1192000,2.983175,-1.668759,11.135432,-15.057561,-18.478531,18.843010
1196000,2.892196,-1.630451,11.228806,-15.469775,-17.776239,13.209421
1200000,2.588132,-1.620875,11.446678,-14.569011,-16.173185,8.446062
1204000,2.339135,-1.549049,11.652579,-12.599545,-13.073950,4.094917
1208000,1.922544,-1.290475,11.712435,-9.408706,-9.150286,0.659803
1212000,1.462857,-1.108515,11.719617,-6.691149,-5.226621,-1.233327
1216000,1.103727,-0.928950,11.796232,-3.698782,-1.913644,-2.134090
1220000,0.814029,-0.782904,11.458650,-1.301835,0.773379,-2.531037
1224000,0.596156,-0.612916,11.133038,0.514959,3.078722,-2.729510
1228000,0.368707,-0.548272,10.972627,1.003508,3.994753,-2.973785
1232000,0.351948,-0.416591,10.709264,1.095111,4.758111,-3.065388
1236000,0.306458,-0.349553,10.498574,0.789768,5.796279,-3.355464
1240000,0.119710,-0.272939,10.390836,0.148546,6.880249,-3.584472
1244000,-0.052672,-0.220267,10.462662,-0.156797,7.353531,-3.294396
1248000,-0.294487,-0.349553,10.381259,-0.675881,6.758111,-2.500503
1252000,-0.411803,-0.280122,10.271125,-1.393438,5.872615,-1.218060
1256000,-0.323217,-0.251391,10.132261,-2.645346,4.544371,-0.164625
1260000,-0.395043,-0.244209,10.247183,-4.904889,2.574905,0.644536
1264000,-0.447716,-0.114922,10.345345,-7.133897,0.529104,1.514765
1268000,-0.629675,-0.143652,10.515334,-8.843820,-1.135018,1.972780
1272000,-0.751779,-0.222661,10.740389,-9.454507,-2.631201,3.591101
1276000,-0.758962,-0.356736,10.910378,-9.393438,-3.028148,5.453696
1280000,-0.557849,-0.507571,11.037270,-9.546110,-2.692270,7.667436
1284000,-0.428562,-0.636858,11.221623,-9.332370,-1.928911,9.133085
1288000,-0.284910,-0.797269,11.523293,-8.843820,-2.814408,9.804840
1292000,-0.225055,-0.828394,11.674128,-9.088095,-4.615934,10.278123
1296000,-0.165200,-0.890643,11.678916,-9.805653,-7.715171,10.552932
1300000,-0.002394,-1.048660,11.990162,-10.309469,-11.425095,10.965146
1304000,0.349553,-1.177947,12.054806,-10.172065,-15.302958,10.629268
1308000,0.804452,-1.244985,11.999739,-10.202599,-18.677004,9.774306
1312000,1.079785,-1.273715,11.824963,-10.507942,-21.302958,7.652170
1316000,1.156399,-1.364695,11.801021,-11.591911,-22.264790,4.904078
1320000,1.036689,-1.221043,11.994950,-11.576645,-23.211355,1.820108
1324000,0.737414,-1.297657,12.143391,-10.385805,-22.768606,-0.256228
1328000,0.342371,-1.221043,12.361263,-6.981225,-19.776239,-1.752411
1332000,0.004788,-0.991199,12.521675,-2.614812,-13.852576,-2.027220
1336000,-0.344765,-0.775721,12.665327,2.377554,-7.348759,-0.760045
1340000,-0.761356,-0.694318,12.780249,7.904272,-0.539598,1.835375
1344000,-1.065420,-0.622492,12.734758,13.278317,4.773379,4.690337
1348000,-1.170765,-0.514753,12.691663,17.858471,8.742844,7.988047
1352000,-1.110910,-0.555455,12.251130,21.629463,12.239027,11.316291
1356000,-0.945710,-0.577003,11.971008,24.056944,14.758111,14.171253
1360000,-0.584185,-0.632069,11.604695,25.339388,16.819180,16.293390
1364000,-0.179565,-0.684742,11.413159,26.453890,17.765745,17.575834
1368000,0.093374,-0.737414,11.188105,26.911905,17.521469,17.514765
1372000,0.414197,-0.835576,10.919954,27.049311,16.849714,17.423162
1376000,0.586579,-0.972046,10.685322,26.118013,15.826813,16.552933
1380000,0.806846,-1.012747,10.409989,24.728701,14.223760,15.041482
1384000,0.962469,-0.931344,10.134656,22.484425,11.658875,13.377359
1388000,0.986411,-0.909797,9.897630,19.339386,8.620707,11.682703
1392000,1.017536,-0.907402,9.715671,15.766867,5.384066,9.453695
1396000,0.955287,-1.371878,10.295067,13.950073,0.086356,6.201787
1400000,0.512359,-1.853112,10.963050,16.392822,-3.196087,7.194154
1404000,1.723825,-0.524330,9.459491,16.072210,2.040554,3.713238
1408000,1.565808,-0.665588,8.899248,13.354653,10.269562,0.858276
1412000,0.536301,-0.902614,9.308656,12.209615,13.994752,0.583467
1416000,-0.189142,-0.445322,9.282320,8.255417,6.422234,0.965146
1420000,-0.150835,-0.672771,9.641450,3.858470,-2.951812,1.362093
1424000,0.330400,-0.457293,9.476251,-0.049927,-7.944179,1.087284
1428000,0.735020,-0.507571,9.026140,-4.263667,-7.470896,0.110184
1432000,0.509965,-1.003170,9.993398,-4.996491,-7.699903,-0.363098
1436000,0.373495,-0.960075,9.739613,-5.011759,-7.150285,-0.454701
1440000,0.644040,-0.787692,9.730036,-4.217866,-5.883110,-0.302029
1444000,1.051055,-0.600945,9.435549,-3.683514,-1.623568,-1.813480
1448000,0.811634,-0.497994,9.397242,-2.828552,4.025287,-3.508136
1452000,0.483629,-0.404620,9.334992,-2.477408,8.116890,-4.179892
1456000,0.105345,-0.275333,9.265560,-2.446873,10.345898,-4.622640
1460000,-0.071826,-0.086191,9.224859,-2.492675,12.910783,-4.103556
1464000,-0.220267,-0.043096,9.117120,-3.347636,14.727577,-3.447068
1468000,-0.409408,0.062249,9.224859,-4.767485,16.498569,-2.118823
1472000,-0.770933,0.112527,9.504981,-6.065194,16.468035,-0.760045
1476000,-1.072602,0.100556,9.785102,-7.607179,14.651241,1.652169
1480000,-1.170765,0.069432,9.943120,-8.675881,13.155058,4.308658
1484000,-1.041478,-0.143652,10.184934,-8.996491,12.177958,6.827742
1488000,-0.768539,-0.318429,10.314221,-8.996491,12.590172,9.010947
1492000,-0.538695,-0.464475,10.596737,-8.859087,12.788646,10.186520
1496000,-0.289698,-0.723049,11.020511,-7.927790,11.887882,10.705604
1500000,0.011971,-0.826000,11.317391,-6.736950,10.254294,10.598734
1504000,0.373495,-1.031901,11.372458,-5.927790,8.361164,10.033848
1508000,0.600945,-1.036689,11.173739,-5.820919,6.361165,8.537665
1512000,0.840365,-1.113304,11.109096,-5.973591,4.437501,6.354459
1516000,0.861913,-1.058237,11.056423,-7.133897,2.040554,3.759039
1520000,0.866701,-1.113304,11.063606,-8.691149,-0.921278,1.102551
1524000,0.744597,-0.945710,11.168951,-10.202599,-3.608301,-1.752411
1528000,0.495600,-0.835576,11.446678,-10.385805,-5.394560,-3.844014
1532000,0.169988,-0.794875,11.583148,-9.515575,-6.280056,-5.080655
1536000,-0.318429,-0.646434,11.633426,-7.790385,-6.066316,-5.477602
1540000,-0.464475,-0.548272,11.583148,-5.851454,-5.180820,-4.927983
1544000,-0.462081,-0.486023,11.470620,-4.202599,-3.348759,-4.149358
1548000,-0.478840,-0.459687,11.609484,-3.500308,-0.722805,-3.813480
1552000,-0.715866,-0.588974,11.626244,-1.775118,2.361165,-3.126457
1556000,-0.799663,-0.577003,11.379641,-0.248400,5.796279,-2.118823
1560000,-0.782904,-0.737414,11.219229,0.942440,10.132157,-0.439434
1564000,-0.665588,-0.852336,11.188105,2.011142,15.078722,0.965146
1568000,-0.567426,-0.890643,11.216835,2.698165,18.849714,1.575833
1572000,-0.562637,-0.921768,11.619061,2.667631,20.345898,2.094917
1576000,-0.584185,-0.914585,11.925519,2.774501,19.796280,2.278123
1580000,-0.648829,-0.981623,12.059594,3.034043,17.109257,2.797207
1584000,-0.658405,-0.921768,12.129025,2.835569,13.322997,3.270490
1588000,-0.644040,-0.919373,12.145785,2.637096,9.399332,3.881177
1592000,-0.478840,-0.933739,12.193669,2.484425,5.735211,3.728505
1596000,-0.397437,-0.897826,12.325351,2.423356,2.284829,3.041482
1600000,-0.387861,-0.790087,12.363658,2.850837,-0.203721,2.201787
1604000,-0.507571,-0.854730,12.354081,3.904272,-0.951812,1.621635
1608000,-0.675165,-0.749385,12.373235,5.782134,-0.478530,1.926978
1612000,-0.893037,-0.751779,12.255919,8.179081,0.712310,2.384994
1616000,-1.079785,-0.656011,12.208035,10.759233,1.948951,3.652169
1620000,-1.043872,-0.682347,11.860875,12.881371,3.200860,5.133085
1624000,-0.943315,-0.541090,11.487380,14.331753,4.422234,6.491864
1628000,-0.739808,-0.514753,11.178528,14.743966,5.933684,7.346826
1632000,-0.665588,-0.495600,11.212047,14.606562,7.093989,8.110184
1636000,-0.572214,-0.572214,11.006145,14.285951,7.674142,8.629268
1640000,-0.359130,-0.593762,10.975020,14.087478,7.490936,8.934611
1644000,-0.131681,-0.603339,10.936713,13.598928,7.032921,9.148352
1648000,-0.050278,-0.459687,10.874464,13.018775,5.918417,8.629268
1652000,0.098162,-0.440533,10.776301,11.843203,3.826814,7.896444
1656000,0.071826,-0.426168,10.757148,10.270684,1.017653,6.736139
1660000,0.055067,-0.418985,10.773908,8.698165,-1.501431,5.743773
1664000,-0.055067,-0.493206,10.922348,7.385188,-3.455629,4.598734
1668000,0.045490,-0.677559,11.142614,7.995874,-5.104484,3.835375
1672000,0.344765,-0.490811,11.319786,10.255417,-4.585400,3.621635
1676000,-0.064643,-0.529119,10.931925,12.408089,-3.241888,3.056749
1680000,-0.165200,-0.373495,10.917560,13.018775,-2.295324,2.827742
1684000,-0.325611,-0.565032,10.852917,13.156180,-2.921278,3.362093
1688000,-0.356736,-0.502782,10.582372,11.629462,-4.631201,3.774307
1692000,-0.196325,-0.538695,10.333375,9.247784,-5.135018,3.514765
1696000,-0.098162,-0.565032,10.072407,6.102745,-5.302957,2.949879
1700000,-0.330400,-0.459687,10.259154,3.369921,-6.707537,3.010948
1704000,-0.476446,-0.574608,10.527305,1.232516,-9.226622,3.514765
1708000,-0.615310,-0.507571,10.855310,0.392821,-11.791507,4.629269
1712000,-0.373495,-0.497994,10.900801,0.133279,-12.066317,5.636902
1716000,-0.150835,-0.493206,11.123461,1.171447,-10.142653,6.079650
1720000,-0.129287,-0.452504,11.379641,3.018775,-7.623568,6.262856
1724000,-0.150835,-0.248997,11.549629,5.614195,-5.669369,6.659803
1728000,-0.282516,-0.229843,11.482592,8.438622,-4.524331,6.965147
1732000,-0.344765,-0.150835,11.346122,10.911905,-3.119751,8.140718
1736000,-0.265756,-0.241814,11.121067,12.957706,-1.745705,9.209421
1740000,-0.165200,-0.320823,10.998962,14.347019,-0.447995,9.728504
1744000,0.052672,-0.354342,10.769119,15.629462,1.078722,9.972779
1748000,0.055067,-0.330400,10.505757,15.995874,1.872615,10.155986
1752000,0.131681,-0.450110,10.237606,14.957706,2.468035,9.896443
1756000,0.177171,-0.529119,10.115502,13.247783,2.605440,10.247588
1760000,0.301669,-0.514753,10.149021,11.721066,1.704676,9.972779
1764000,0.433351,-0.371101,10.149021,9.950073,0.971852,9.468963
1768000,0.586579,-0.414197,10.347740,8.759233,1.017653,8.629268
1772000,0.725443,-0.316035,10.311827,7.476791,1.643608,7.591100
1776000,0.711078,-0.395043,10.517728,6.881371,2.147424,6.384994
1780000,0.660800,-0.409408,10.766725,6.911905,2.086356,5.682703
1784000,0.720655,-0.495600,11.080365,7.675264,1.536737,4.461329
1788000,0.849942,-0.502782,10.979809,8.576028,1.384066,2.965146
1792000,0.866701,-0.507571,10.874464,9.110378,1.231394,0.965146
1796000,0.737414,-0.395043,10.874464,9.446257,-0.203721,-0.882182
1800000,0.519542,-0.316035,10.905589,8.698165,-2.890743,-2.347831
1804000,0.378284,-0.306458,10.790668,7.980608,-6.096850,-3.721877
1808000,0.265756,-0.241814,10.718841,7.018775,-8.890744,-4.698976
1812000,0.071826,-0.177171,10.572795,5.614195,-10.509065,-5.401266
1816000,-0.062249,-0.184354,10.584765,3.980608,-11.562500,-5.721877
1820000,-0.227449,-0.062249,10.876859,2.743967,-12.875477,-5.569205
1824000,-0.344765,-0.019154,10.893618,1.705798,-11.791507,-5.004319
1828000,-0.399832,-0.239420,11.207258,3.293585,-16.402193,-5.004319
1832000,-0.687136,-0.014365,10.982203,3.049310,-14.188454,-4.134090
1836000,-0.921768,-0.043096,11.118672,3.034043,-16.157919,-2.195159
1840000,-0.586579,-0.074220,11.111490,3.598928,-14.844942,-0.836380
1844000,-0.289698,-0.040701,10.912771,3.766867,-13.455629,0.033849
1848000,-0.225055,-0.122104,10.917560,4.423356,-9.852576,0.446062
1852000,-0.213084,-0.028730,10.848128,4.591295,-6.524331,1.117818
1856000,-0.234632,-0.050278,10.886436,4.469157,-4.142652,1.560566
1860000,-0.229843,-0.023942,10.931925,4.163814,-2.447995,2.125452
1864000,-0.263362,-0.064643,10.912771,4.163814,-1.730438,3.163620
1868000,-0.131681,-0.050278,11.044453,3.690531,-1.135018,4.003314
1872000,-0.122104,-0.081403,11.027693,3.583661,-0.997614,5.239955
1876000,0.134075,-0.129287,11.109096,3.263050,-1.470896,5.972780
1880000,0.390255,-0.181959,11.037270,3.003508,-2.524331,6.171253
1884000,0.749385,-0.265756,11.166556,2.774501,-4.173186,5.636902
1888000,0.881066,-0.603339,11.161768,2.484425,-5.486163,4.110185
1892000,1.043872,-0.567426,11.243171,2.805035,-6.814407,2.110184
1896000,1.218649,-0.229843,11.042058,4.514959,-6.661736,-0.027220
1900000,1.115698,-0.318429,10.812215,4.774501,-4.661736,-2.317297
1904000,0.818817,-0.349553,10.879252,5.476791,-2.524331,-3.538671
1908000,0.442927,-0.299275,10.733206,5.553127,-2.570133,-4.011953
1912000,0.311246,-0.320823,10.759542,4.972974,-4.005247,-4.515770
1916000,0.337582,-0.201113,10.766725,4.011142,-5.241889,-5.111189
1920000,0.519542,-0.275333,10.579977,2.530226,-5.760972,-6.240961
1924000,0.397437,-0.220267,10.716447,1.889004,-5.058682,-7.202793
1928000,0.150835,-0.184354,10.790668,1.858470,-4.844942,-7.691342
1932000,0.107739,-0.131681,10.644621,2.637096,-3.379293,-7.691342
1936000,0.239420,-0.002394,10.711658,3.308852,-1.348759,-7.752411
1940000,0.158017,-0.071826,10.647015,3.858470,1.704676,-8.531037
1944000,-0.093374,0.112527,10.690110,3.644730,2.223760,-8.637908
1948000,-0.395043,0.167594,10.718841,3.492058,0.391699,-8.103557
1952000,-0.521936,0.258574,10.606314,3.125646,-1.913644,-7.401266
1956000,-0.486023,0.220267,10.579977,3.079844,-2.921278,-6.302029
1960000,-0.292093,0.117316,10.393229,2.835569,-1.822041,-5.080655
1964000,-0.270545,0.155623,10.376471,2.362287,-0.127385,-4.347831
1968000,-0.239420,0.079009,10.474632,1.675264,1.078722,-3.492869
1972000,-0.201113,0.169988,10.474632,1.079844,1.200860,-2.989052
1976000,-0.184354,0.107739,10.500969,0.606562,1.185592,-2.943251
1980000,-0.289698,0.179565,10.441113,0.285951,1.872615,-2.668442
1984000,-0.304064,0.155623,10.474632,-0.278934,1.781012,-1.920350
1988000,-0.203507,0.141258,10.467450,-1.301835,1.414600,-1.355464
1992000,-0.093374,0.119710,10.589554,-2.614812,0.498570,-1.477602
1996000,-0.191536,0.071826,10.651803,-4.141530,-0.982347,-1.523403
