time_us,ax,ay,az,gx,gy,gz
0,-0.189142,-0.251391,10.965444,-0.492675,-2.005247,-1.080655
4000,-0.213084,-0.237026,10.948685,-0.187331,-1.715171,-0.866915
8000,-0.344765,-0.215478,10.986992,0.118012,-1.379293,-0.851648
12000,-0.371101,-0.210690,10.984597,0.438623,-1.638835,-0.515770
16000,-0.272939,-0.246603,10.989386,0.759233,-2.264789,-0.134090
20000,-0.220267,-0.234632,10.948685,0.866104,-1.928911,-0.469968
24000,-0.201113,-0.275333,11.027693,0.621829,-1.684637,-0.393632
28000,-0.399832,-0.232238,11.042058,0.927172,-1.348759,-0.622640
32000,-0.430956,-0.234632,11.066000,1.308852,-1.501431,-0.317297
36000,-0.442927,-0.248997,11.147403,1.629462,-1.333492,-0.103556
40000,-0.402226,-0.246603,11.092337,2.285951,-1.119751,-0.011953
44000,-0.366313,-0.260968,10.898406,1.965340,-0.829675,0.064383
48000,-0.337582,-0.301669,10.843340,1.919539,-0.112117,-0.011953
52000,-0.299275,-0.241814,10.862494,1.568394,0.803913,-0.210426
56000,-0.383072,-0.239420,11.032481,1.278317,0.422234,-0.164625
60000,-0.361524,-0.277727,11.022904,1.095111,0.010020,-0.332564
64000,-0.277727,-0.308852,11.022904,0.972974,-0.692270,-0.240961
68000,-0.299275,-0.265756,11.022904,0.942440,-0.295324,-0.347831
72000,-0.237026,-0.342371,11.145009,0.637096,0.071089,-0.622640
76000,-0.263362,-0.323217,11.106702,0.820302,0.315363,-0.469968
80000,-0.287304,-0.284910,11.097125,0.972974,0.010020,-0.469968
84000,-0.256180,-0.356736,11.116279,1.369921,-0.509064,-0.576838
88000,-0.251391,-0.280122,11.080365,1.369921,-0.738072,-0.912716
92000,-0.296881,-0.248997,11.003751,1.385188,-0.783873,-1.309663
96000,-0.411803,-0.220267,11.025299,1.339386,-0.447995,-1.172258
100000,-0.457293,-0.237026,11.051635,1.247783,-0.600667,-1.050121
104000,-0.514753,-0.239420,11.166556,1.751600,-0.783873,-0.668442
108000,-0.617704,-0.244209,11.166556,2.011142,-0.967079,-0.576838
112000,-0.711078,-0.217872,11.164163,2.316485,-1.440362,-0.195159
116000,-0.701501,-0.232238,11.006145,2.591295,-1.608301,0.369726
120000,-0.632069,-0.203507,10.982203,2.224883,-1.822041,0.583467
124000,-0.555455,-0.201113,10.833763,2.331753,-1.470896,1.163620
128000,-0.464475,-0.292093,10.788273,1.950073,-0.570133,1.591100
132000,-0.500388,-0.215478,10.826580,1.522592,-0.264789,1.774307
136000,-0.529119,-0.201113,10.977415,1.400455,-0.615934,2.079650
140000,-0.469264,-0.189142,11.128249,1.278317,-1.241889,2.064383
144000,-0.466869,-0.162806,11.068395,1.400455,-1.989980,2.369726
148000,-0.418985,-0.205901,11.080365,1.537859,-2.585400,2.568200
152000,-0.241814,-0.208296,11.027693,1.858470,-2.524331,2.720871
156000,-0.150835,-0.193930,11.020511,2.194348,-2.295324,2.675070
160000,-0.083797,-0.098162,10.943896,2.576027,-2.188453,2.476597
164000,0.086191,-0.134075,10.833763,2.667631,-1.913644,1.865910
168000,-0.007183,-0.174777,10.608707,2.285951,-1.867843,1.346826
172000,0.090980,-0.181959,10.436325,1.476791,-1.257156,0.827742
176000,-0.040701,-0.124498,10.457873,0.453890,-1.028148,0.415528
180000,0.031125,-0.189142,10.558430,-0.538476,-1.226621,0.247589
184000,-0.016759,-0.189142,10.618284,-1.164430,-1.302957,-0.240961
188000,-0.028730,-0.165200,10.845734,-1.851454,-1.272423,-0.714243
192000,-0.203507,-0.148441,10.939108,-1.912522,-1.058682,-0.943251
196000,-0.191536,-0.052672,11.097125,-1.836186,-0.554866,-0.775312
200000,-0.277727,-0.138864,11.276690,-0.996492,-0.570133,-0.439434
204000,-0.292093,-0.129287,11.346122,0.377554,-0.570133,-0.088289
208000,-0.342371,-0.179565,11.355699,1.644730,-0.341125,0.033849
212000,-0.272939,-0.083797,11.176133,2.652363,0.040554,0.201787
216000,-0.270545,-0.143652,11.013328,3.079844,0.208493,0.369726
220000,-0.215478,-0.134075,10.860099,3.369921,0.803913,0.278123
224000,-0.191536,-0.143652,10.814610,3.049310,1.338264,0.003314
228000,-0.181959,-0.050278,10.795456,2.453890,1.460402,0.003314
232000,-0.301669,-0.009577,10.718841,2.377554,1.093989,-0.439434
236000,-0.502782,0.004788,10.577583,1.980608,0.177959,-0.714243
240000,-0.584185,0.038307,10.503363,1.492058,-0.768606,-0.469968
244000,-0.577003,-0.047884,10.419566,0.255417,-0.906011,-0.347831
248000,-0.569820,0.035913,10.503363,-0.248400,-1.089217,-0.485235
252000,-0.754174,-0.026336,10.608707,-1.011759,-0.753339,-0.256228
256000,-0.792481,0.055067,10.709264,-1.088094,-0.585400,0.125452
260000,-1.019930,0.059855,10.840945,-1.485041,-0.402194,0.858276
264000,-1.043872,0.040701,10.941502,-1.011759,-0.142652,1.484230
268000,-1.096544,0.102951,10.955867,-0.767484,-0.463263,2.568200
272000,-1.051055,0.040701,10.936713,-0.904888,-0.493797,3.102551
276000,-0.893037,0.040701,10.845734,-0.630080,-0.203721,3.377360
280000,-0.893037,0.033519,10.826580,-0.828552,-0.096850,3.423162
284000,-0.943315,0.105345,10.833763,-1.317102,-0.417461,3.820108
288000,-0.924162,0.184354,10.898406,-1.439240,-0.600667,4.308658
292000,-0.854730,0.282516,10.927136,-2.065194,-0.844942,4.644536
296000,-0.727837,0.306458,10.888829,-2.401072,-0.875476,5.056749
300000,-0.658405,0.359130,10.948685,-2.813286,-1.302957,5.438429
304000,-0.423774,0.409408,10.967838,-3.698782,-1.180820,5.575833
308000,-0.256180,0.416591,11.068395,-4.126263,-0.814408,5.239955
312000,-0.165200,0.490811,11.077971,-4.752217,-0.066316,4.690337
316000,-0.052672,0.529119,11.207258,-4.920156,1.231394,4.201787
320000,-0.031125,0.567426,11.377247,-4.813286,1.903150,3.560566
324000,0.076614,0.517148,11.405977,-4.507942,3.048188,2.354459
328000,-0.033519,0.502782,11.417948,-4.446874,4.239028,1.774307
332000,-0.220267,0.514753,11.535264,-4.630079,4.971852,0.781940
336000,-0.502782,0.500388,11.875240,-4.569011,4.147425,0.705604
340000,-0.634463,0.486023,12.052411,-4.233133,3.582539,0.675070
344000,-0.667982,0.591368,12.363658,-3.469774,3.368799,1.178887
348000,-0.675165,0.588974,12.507310,-2.340003,4.116890,1.514765
352000,-0.691924,0.627281,12.667721,-0.523209,4.987119,1.820108
356000,-0.763750,0.735020,12.861651,1.308852,6.559639,2.064383
360000,-0.960075,0.756568,12.849681,3.492058,6.742845,2.568200
364000,-1.108515,0.804452,12.866440,5.339386,6.315363,3.484231
368000,-1.010353,0.909797,12.658144,7.263050,5.445135,4.110185
372000,-0.828394,0.969652,12.500127,8.881371,5.735211,4.751406
376000,-0.711078,1.091756,12.435484,10.102745,6.300097,5.102551
380000,-0.548272,1.189918,12.191275,11.140913,7.155058,5.407895
384000,-0.497994,1.180341,12.102690,11.797401,7.918417,5.270490
388000,-0.423774,1.345541,11.903971,12.163814,8.162691,5.331559
392000,-0.289698,1.395820,11.650186,12.209615,7.842081,5.255223
396000,-0.169988,1.529895,11.453861,12.041677,8.147424,4.934612
400000,0.021548,1.577779,11.192893,12.011142,8.086355,4.384994
404000,0.031125,1.726219,10.996569,11.537860,8.071088,3.392627
408000,0.000000,1.798046,10.812215,11.232516,6.880249,2.384994
412000,0.028730,1.972822,10.704475,10.545493,5.994753,1.636902
416000,0.102951,1.980005,10.302250,9.629462,5.170325,0.217055
420000,-0.110133,1.819593,10.105926,8.667630,5.597806,-1.095922
424000,-0.301669,1.656788,10.060435,6.881371,7.307730,-1.996686
428000,-0.653617,1.642422,10.158598,5.278317,10.101623,-1.737144
432000,-0.907402,1.810017,10.426748,3.568394,12.758111,-0.760045
436000,-1.132457,1.798046,10.910378,3.018775,13.903150,0.568200
440000,-0.955287,1.893813,11.307815,3.064577,16.101622,2.064383
444000,-0.849942,1.872266,11.652579,3.827936,17.994753,3.255223
448000,-0.864307,1.879448,11.755530,5.064577,18.452768,3.896444
452000,-0.955287,2.008735,11.540052,6.743966,17.002386,4.797207
456000,-0.981623,2.128445,11.192893,7.492058,15.002386,5.194154
460000,-0.663194,2.248155,10.860099,7.064577,13.750478,4.843009
464000,-0.435745,2.260126,10.546458,6.484425,12.987119,3.896444
468000,-0.356736,2.408567,10.333375,5.095111,12.483302,2.705604
472000,-0.433351,2.602497,10.230424,3.308852,10.254294,1.377360
476000,-0.502782,2.738967,10.010158,1.583661,6.864982,0.323925
480000,-0.670376,2.973598,9.763555,-0.706415,3.185592,-0.485235
484000,-0.608127,2.987964,9.490616,-3.362904,-0.493797,-1.111190
488000,-0.588974,3.131616,9.363723,-6.126263,-3.012881,-1.935617
492000,-0.658405,3.239355,9.591172,-8.477407,-4.661736,-2.836380
496000,-0.725443,3.337517,10.000581,-9.759851,-6.463263,-3.752411
500000,-0.964863,3.430891,10.378864,-9.912522,-9.348759,-4.073022
504000,-1.163582,3.466804,10.737994,-8.950690,-12.921278,-3.752411
508000,-1.338359,3.507505,10.697293,-6.828553,-15.211354,-3.477602
512000,-1.711854,3.337517,10.512939,-4.706415,-15.883110,-2.592106
516000,-1.836353,3.107674,10.014946,-2.965957,-13.241889,-1.141724
520000,-1.778892,2.746149,9.691729,-1.912522,-7.638835,1.239955
524000,-1.656788,2.432509,9.287108,-2.217866,-0.814408,4.339192
528000,-1.673547,2.315193,9.375694,-3.301835,5.353531,7.392627
532000,-1.587356,2.013524,9.583989,-4.798018,8.574905,10.736138
536000,-1.477222,1.927332,9.751583,-7.240767,8.391699,13.407894
540000,-0.988805,1.850718,10.036493,-9.286569,7.887883,14.476596
544000,-0.375890,1.596933,10.220847,-10.996491,8.391699,14.736138
548000,-0.021548,1.347936,10.407595,-11.866721,8.223760,14.003314
552000,0.126893,1.185130,10.840945,-11.897255,7.414600,12.919344
556000,0.258574,1.264138,11.231200,-10.630079,4.239028,11.545299
560000,0.371101,1.352724,11.487380,-8.996491,-0.707537,9.362092
564000,0.509965,1.386243,11.470620,-7.256034,-7.883110,7.163620
568000,0.603339,1.304840,11.013328,-6.920156,-16.112118,5.255223
572000,0.895431,1.513135,10.568007,-7.301835,-24.218988,1.575833
576000,0.988805,1.527501,10.311827,-8.706415,-31.364027,-1.645541
580000,0.885855,1.575385,10.026917,-10.813286,-37.638836,-5.630273
584000,0.428562,1.431733,9.998186,-12.477408,-44.203720,-7.996686
588000,0.138864,1.702277,9.651027,-14.935424,-47.165554,-9.889816
592000,-0.687136,1.769315,9.469068,-16.385803,-47.318226,-10.973785
596000,-1.793257,1.721431,9.536105,-16.920155,-43.730438,-9.004320
600000,-2.806004,1.719037,9.469068,-16.462139,-37.959446,-4.790579
604000,-3.306392,1.707066,9.605537,-15.958323,-27.211355,1.316291
608000,-3.574543,1.580173,9.962274,-14.034659,-11.913645,8.415527
612000,-3.907337,1.206678,10.168175,-11.881988,3.093989,14.980413
616000,-4.355053,1.015141,10.421960,-9.225499,12.910783,22.995682
620000,-4.122815,1.170765,10.402806,-7.714049,21.093988,33.041481
624000,-2.971204,0.186748,10.053253,-7.637713,31.216125,39.209423
628000,-1.534683,-0.624887,9.742006,-9.118629,43.506203,43.423161
632000,-0.162806,-1.158794,10.500969,-11.775118,53.399334,45.178886
636000,0.567426,-1.304840,12.129025,-13.194964,54.330631,44.934612
640000,1.094150,-1.295263,13.433866,-12.263667,44.834446,42.155987
644000,1.817199,-1.395820,13.998898,-9.943057,31.032921,38.415527
648000,2.650381,-1.580173,13.860034,-7.317102,17.506203,32.827744
652000,3.335123,-1.599327,13.366828,-5.027026,4.941318,25.301025
656000,3.584120,-1.379060,12.792220,-3.790385,-7.593033,16.430796
660000,3.325546,-1.300052,12.270284,-3.912522,-21.302958,7.255223
664000,2.571373,-1.209072,11.683704,-5.714049,-37.104485,-0.866915
668000,1.403002,-0.773327,11.473015,-9.454507,-52.585400,-7.737144
672000,0.057461,-0.543484,11.113884,-12.645347,-63.379295,-11.401266
676000,-1.144428,-0.368707,10.740389,-14.859088,-64.768600,-11.538671
680000,-2.284068,-0.189142,10.378864,-16.294201,-57.608299,-8.378366
684000,-3.136404,-0.184354,10.381259,-16.065193,-43.760971,-2.698976
688000,-4.161122,0.002394,10.383653,-15.256034,-26.310591,5.087284
692000,-4.891354,0.016759,10.381259,-14.294202,-8.051049,14.629268
696000,-5.109226,-0.129287,10.311827,-13.378171,9.781012,24.354460
700000,-4.692636,-0.328006,10.347740,-12.767484,27.490936,33.988049
704000,-3.655946,-0.711078,10.237606,-11.958323,44.727577,41.575832
708000,-2.470816,-0.945710,10.426748,-11.591911,59.216125,47.163620
712000,-1.414973,-1.180341,10.900801,-10.950690,68.513840,50.797207
716000,-0.227449,-1.254562,11.382035,-10.584278,72.330635,52.369728
720000,1.209072,-1.323994,11.987768,-10.355270,70.513840,50.751408
724000,2.389413,-1.417367,12.346898,-9.317102,63.384064,46.003315
728000,3.837905,-1.668759,12.449849,-7.515575,54.574905,37.423161
732000,4.134786,-1.752556,12.083536,-7.256034,43.719944,27.362093
736000,3.873818,-1.872266,12.308591,-7.317102,26.834448,16.781940
740000,3.344700,-1.759738,12.126632,-7.485042,6.254295,7.575834
744000,3.189077,-1.750161,11.508927,-9.194965,-14.951813,-1.401266
748000,3.244143,-1.783680,10.989386,-11.759851,-32.356392,-10.378366
752000,2.652776,-1.793257,10.299856,-14.996491,-45.593033,-18.729509
756000,1.565808,-1.805228,9.758766,-19.744583,-55.058681,-25.477602
760000,0.241814,-1.757344,9.363723,-24.645346,-61.379295,-29.187525
764000,-1.630451,-1.769315,9.677363,-29.988857,-64.554863,-30.286762
768000,-3.543418,-1.728614,10.307038,-32.660614,-64.417458,-27.111189
772000,-4.627992,-1.766921,10.761936,-32.462139,-56.463264,-20.668442
776000,-5.228937,-1.960851,11.286267,-29.973591,-39.470898,-12.103557
780000,-5.693412,-2.106898,11.892000,-24.920155,-16.341125,-2.027220
784000,-5.856217,-2.145205,12.397177,-18.660612,9.384066,9.514764
788000,-5.707777,-2.403779,12.873623,-12.324737,32.758110,21.621635
792000,-4.692636,-2.631228,13.259089,-6.416339,50.498569,31.774307
796000,-3.224990,-2.705448,13.563152,-1.301835,62.742844,39.362095
800000,-1.601721,-2.815581,13.852851,2.301218,68.147430,43.713238
804000,-0.562637,-2.815581,13.989321,5.430989,67.781013,45.285759
808000,0.442927,-2.782062,13.982138,8.576028,59.078720,43.606369
812000,1.491588,-2.779668,13.675680,10.988241,47.857349,39.545300
816000,2.166753,-2.806004,13.151350,12.988241,35.857349,33.224689
820000,2.540248,-2.583344,12.385205,13.782134,24.819180,25.484230
824000,2.396596,-2.272097,11.724405,13.766867,15.506203,17.560566
828000,1.951274,-2.018312,10.896012,12.957706,7.552005,10.552932
832000,1.568202,-2.121263,10.091560,11.079844,1.399333,4.965147
836000,1.441309,-2.006341,9.435549,8.469157,-3.822041,0.522398
840000,0.811634,-1.783680,8.801085,4.270684,-7.883110,-3.156991
844000,0.598550,-1.675941,8.429984,-1.179698,-14.432729,-5.385999
848000,0.648829,-1.417367,8.264784,-7.347637,-21.455629,-8.271495
852000,0.557849,-1.201889,8.233660,-13.546111,-29.364027,-12.225694
856000,-0.174777,-1.309628,8.070854,-19.240767,-38.218987,-15.874549
860000,-0.732626,-1.290475,7.953538,-24.355270,-47.150288,-17.874548
864000,-1.472434,-1.264138,7.848193,-29.103359,-53.791508,-18.439434
868000,-2.363077,-1.209072,7.975086,-32.599545,-55.745705,-17.813478
872000,-3.076549,-0.995988,7.790732,-35.027027,-51.394562,-15.218060
876000,-4.017470,-0.790087,8.044518,-36.889622,-40.386929,-10.408900
880000,-4.908113,-0.907402,8.607155,-36.401070,-23.883110,-3.569205
884000,-5.365406,-1.165976,8.834604,-33.622444,-2.860209,5.499497
888000,-5.310339,-1.352724,8.939949,-31.408703,21.674141,15.530032
892000,-4.965574,-1.683124,9.244013,-28.691147,45.032921,25.652170
896000,-4.034230,-1.776498,9.765948,-26.385803,61.353531,34.140720
900000,-2.657564,-1.891419,10.386047,-24.156796,70.803917,39.407894
904000,-1.079785,-2.047042,11.128249,-22.278934,73.842087,40.614002
908000,0.148441,-2.032677,11.666945,-20.523209,72.025291,38.369728
912000,0.833182,-2.037466,11.947066,-17.469774,66.330635,34.446064
916000,0.979228,-2.248155,11.722012,-13.454507,56.788647,29.835377
920000,1.063026,-2.173935,11.178528,-10.355270,46.544373,25.056749
924000,1.266533,-2.212242,10.615891,-8.110995,37.918415,19.453697
928000,1.165976,-2.296039,9.907207,-6.904889,31.704678,13.697970
932000,0.802058,-2.456451,8.980651,-7.515575,27.002386,7.896444
936000,0.181959,-2.545036,8.015787,-10.462141,23.826813,3.255223
940000,-0.488417,-2.686294,7.247249,-14.752217,23.216125,0.614001
944000,-1.110910,-2.636016,6.976704,-21.027025,23.918417,0.644536
948000,-1.623269,-2.525883,7.290344,-27.179697,20.880249,1.117818
952000,-1.814805,-2.717419,7.706935,-31.744583,15.628340,0.827742
956000,-1.970428,-2.987964,7.785944,-35.988857,10.849714,-0.332564
960000,-2.202666,-3.294421,7.620744,-40.691147,6.315363,-0.836380
964000,-2.832341,-3.406949,7.812280,-45.133896,0.773379,-0.149358
968000,-3.378219,-3.416526,7.929596,-49.637711,-7.501431,1.621635
972000,-3.696647,-3.495534,8.377312,-53.500309,-15.486164,3.728505
976000,-3.746926,-3.746926,8.489840,-56.859085,-20.661736,5.270490
980000,-3.976769,-3.983952,8.801085,-60.141525,-23.486164,6.980413
984000,-4.558560,-4.192247,9.588778,-62.645348,-24.188454,9.759039
988000,-5.295974,-4.228160,10.615891,-63.042290,-22.799141,14.827742
992000,-5.645528,-3.921702,11.475409,-60.889618,-19.333492,21.697971
996000,-5.456386,-3.670311,12.124237,-56.446873,-14.051049,27.972780
1000000,-4.726154,-3.828329,12.701240,-49.362904,-7.654102,33.545300
1004000,-3.811569,-4.067749,12.899959,-40.767483,-0.677003,37.148354
1008000,-3.138798,-4.127604,12.332533,-33.576645,1.765745,40.094917
1012000,-2.200271,-4.067749,11.750742,-28.584278,2.345898,40.537666
1016000,-1.331176,-4.151546,11.123461,-25.088095,0.574905,38.965145
1020000,-0.646434,-4.321534,10.357317,-24.584276,-3.119751,36.247589
1024000,-0.256180,-4.431667,9.581595,-25.118628,-8.173186,32.598736
1028000,-0.093374,-4.548983,8.736442,-27.362904,-12.509065,29.255222
1032000,-0.435745,-4.702212,7.896077,-31.042294,-16.325857,26.629269
1036000,-1.031901,-4.558560,7.264008,-36.340004,-21.302958,26.186522
1040000,-1.079785,-4.393360,7.165846,-43.729317,-28.112118,26.308659
1044000,-0.656011,-4.513070,7.596802,-50.752216,-33.822041,26.232323
1048000,-0.148441,-4.661511,8.137892,-56.996490,-36.814407,24.736139
1052000,-0.026336,-4.735731,8.856153,-61.286568,-36.554867,22.812475
1056000,-0.404620,-4.781221,9.603143,-63.240768,-34.432728,21.331558
1060000,-0.768539,-4.845864,10.283096,-63.301834,-30.921278,21.423162
1064000,-0.823605,-4.965574,11.257536,-61.179695,-27.562500,21.926979
1068000,-0.821211,-4.948815,12.334928,-56.782749,-25.486164,22.507132
1072000,-0.816423,-4.939238,13.366828,-50.950691,-25.089216,23.316292
1076000,-1.458069,-5.279215,14.492103,-46.095726,-26.936544,23.270491
1080000,-3.914520,-3.854665,14.449007,-30.996490,-28.157919,30.995682
1084000,-2.061408,-3.991134,11.250354,-26.065193,-7.898377,31.209421
1088000,-0.033519,-5.489904,12.306197,-23.866720,10.758111,32.339191
1092000,0.447716,-5.418078,13.783420,-17.057560,16.376432,37.285759
1096000,1.063026,-4.596867,14.041993,-15.103362,1.338264,35.682705
1100000,2.066196,-4.429273,14.051570,-17.149162,-16.280056,30.736139
1104000,2.932897,-4.529830,13.445837,-20.049927,-25.852575,25.652170
1108000,3.160346,-4.941632,13.342886,-20.859087,-23.272423,20.751406
1112000,3.275268,-4.797980,13.792996,-17.958323,-10.661736,17.041483
1116000,3.086126,-4.429273,15.174450,-12.095729,6.681776,15.056749
1120000,2.971204,-4.209007,16.304514,0.423356,22.773378,13.270490
1124000,3.203442,-4.230555,15.875952,13.003509,36.681774,9.041482
1128000,2.856283,-4.129998,15.234305,21.400455,47.322998,6.537665
1132000,2.193089,-3.955221,14.755466,27.247784,53.322998,4.140719
1136000,1.139640,-3.521871,14.099454,30.362288,51.643608,3.209421
1140000,0.483629,-3.189077,13.421895,32.957706,44.697041,3.331558
1144000,0.325611,-2.944868,12.241553,35.553127,38.727577,2.934612
1148000,0.677559,-2.947262,10.872070,37.110378,37.093990,1.743772
1152000,1.074997,-3.227384,9.313444,37.568394,40.223759,-2.378365
1156000,0.359130,-2.276886,8.784326,34.759232,42.849712,-4.378365
1160000,-0.438139,-2.003947,8.566454,30.484425,44.773376,-6.088289
1164000,-1.154005,-2.245761,8.341399,26.163815,43.307728,-8.164625
1168000,-1.632846,-2.477999,8.549694,22.087479,42.697041,-8.424167
1172000,-1.984793,-2.430115,9.105149,19.553127,43.246662,-6.958518
1176000,-2.310405,-2.308010,9.737218,19.095112,43.384064,-5.477602
1180000,-2.578555,-2.391808,10.280702,20.514959,41.674141,-3.721877
1184000,-2.602497,-2.458845,10.608707,23.385189,36.422234,-1.309663
1188000,-2.183512,-2.391808,10.374076,24.820303,29.842081,-0.073022
1192000,-1.742979,-2.468422,10.225636,25.308853,24.269562,-0.408900
1196000,-1.436521,-2.566584,10.268731,25.629463,17.674141,-1.599739
1200000,-1.367089,-2.432509,10.127473,25.232517,10.529103,-2.897449
1204000,-1.599327,-2.312799,10.019734,23.476791,3.063455,-3.981419
1208000,-2.030283,-2.420538,10.002975,23.721066,-2.386927,-3.508136
1212000,-2.200271,-2.300828,9.512163,23.095112,-7.043415,-1.599739
1216000,-1.879448,-2.355895,9.167398,21.400455,-10.524332,0.339192
1220000,-1.584962,-2.260126,9.143456,19.797401,-13.226622,0.888810
1224000,-1.556231,-2.205060,9.078813,17.522593,-16.402193,1.026215
1228000,-1.623269,-1.963245,8.686164,14.026409,-19.852575,1.072016
1232000,-1.403002,-1.987187,8.516175,10.270684,-20.661736,0.461329
1236000,-1.441309,-2.039860,8.616732,8.240149,-17.028149,0.262856
1240000,-1.271321,-2.051831,8.803479,5.904272,-9.974713,-0.469968
1244000,-1.122881,-2.073379,9.414001,5.354653,-0.768606,-1.263861
1248000,-1.295263,-2.116474,10.412383,7.690531,7.231394,-1.340197
1252000,-1.350330,-2.118869,10.630256,9.690532,14.880248,-0.866915
1256000,-1.546654,-2.111686,10.802638,10.988241,18.849714,0.232322
1260000,-1.616086,-2.245761,11.073183,13.415722,19.109257,0.980413
1264000,-1.970428,-2.080561,10.924743,15.079844,16.895515,1.820108
1268000,-1.939303,-1.891419,10.460267,15.003509,14.254294,2.491864
1272000,-1.915361,-1.917756,10.079589,14.240149,12.864982,2.781940
1276000,-1.778892,-1.941698,9.835381,13.400455,12.513836,2.919345
1280000,-1.754950,-1.941698,9.811439,11.766868,12.559638,2.965146
1284000,-1.699883,-1.855506,10.055647,10.484425,11.826814,2.537665
1288000,-1.721431,-1.843535,10.213664,9.446257,10.773378,2.018581
1292000,-1.726219,-1.886631,10.340557,8.347020,9.460402,1.957513
1296000,-1.663970,-1.817199,10.330980,7.614195,8.345898,1.636902
1300000,-1.647211,-1.989582,10.747571,7.156180,6.513837,1.377360
1304000,-1.731008,-2.094927,11.049241,7.339386,3.093989,1.453696
1308000,-1.838747,-1.915361,11.391612,8.377554,-1.058682,2.018581
1312000,-1.879448,-1.865083,11.520899,9.461524,-5.028148,2.461329
1316000,-1.714248,-1.900996,11.305421,10.850837,-6.432728,2.797207
1320000,-1.795651,-1.848324,10.934319,11.339386,-5.425095,2.598734
1324000,-1.759738,-1.984793,10.745177,12.041677,-3.974713,2.980413
1328000,-1.740585,-2.008735,10.699687,11.965341,-2.570133,3.316291
1332000,-1.568202,-1.951274,10.613496,11.537860,-1.028148,3.377360
1336000,-1.527501,-1.932121,10.575189,11.018776,0.956585,2.934612
1340000,-1.470040,-1.980005,10.429143,10.285952,3.445134,2.766673
1344000,-1.283292,-2.018312,10.374076,10.041677,6.330631,2.568200
1348000,-0.991199,-2.070984,10.560823,9.950073,8.437500,2.110184
1352000,-0.984017,-2.025495,10.615891,9.721066,9.536737,1.255223
1356000,-1.113304,-2.073379,10.828975,9.705798,8.605439,-0.011953
1360000,-1.252167,-2.006341,10.907983,9.583661,6.620707,-0.653174
1364000,-1.249773,-1.999158,10.843340,9.415722,5.521471,-1.324930
1368000,-1.326388,-2.047042,10.874464,9.522593,5.582539,-2.073022
1372000,-1.467646,-2.037466,10.919954,9.782134,5.170325,-2.179892
1376000,-1.570596,-2.068590,10.831368,9.827936,3.735211,-1.981419
1380000,-1.738190,-1.922544,10.606314,9.675264,1.750478,-1.477602
1384000,-1.802834,-1.879448,10.515334,8.224882,-1.150285,-0.973785
1388000,-1.819593,-1.893813,10.338163,6.927173,-4.936545,-0.943251
1392000,-1.903390,-1.668759,10.201694,5.140913,-9.241889,-0.958518
1396000,-1.798046,-1.781286,10.172963,3.889004,-11.745706,-0.851648
1400000,-1.580173,-1.752556,9.911995,2.606562,-13.150286,-0.515770
1404000,-1.273715,-1.752556,9.880871,1.461524,-12.982347,-1.034854
1408000,-1.048660,-1.776498,9.931149,0.805035,-10.539598,-1.996686
1412000,-0.988805,-1.886631,10.060435,0.438623,-6.997613,-3.477602
1416000,-1.144428,-1.850718,10.134656,-0.065194,-2.890743,-4.179892
1420000,-1.326388,-1.795651,10.414778,-0.049927,2.025287,-4.805846
1424000,-1.556231,-1.908179,10.706870,1.293585,6.987119,-4.637907
1428000,-1.659182,-1.924938,10.766725,3.186715,10.437500,-3.889816
1432000,-1.623269,-2.047042,10.917560,4.866104,11.826814,-3.202793
1436000,-1.479617,-2.075773,10.821792,6.072211,12.315363,-2.714243
1440000,-1.302446,-1.869871,10.666168,5.598928,11.857347,-2.943251
1444000,-1.472434,-1.951274,10.881647,5.659997,10.208493,-4.179892
1448000,-1.738190,-1.853112,10.546458,4.896638,7.338264,-4.302029
1452000,-1.836353,-1.932121,10.548853,3.934806,4.987119,-3.966152
1456000,-1.968034,-1.886631,10.702082,4.331753,3.032921,-3.599739
1460000,-2.051831,-1.829170,10.658986,4.102745,0.941318,-3.156991
1464000,-2.264915,-1.807622,10.623073,4.469157,-1.440362,-2.744777
1468000,-2.365471,-1.666364,10.316615,4.179081,-3.760972,-1.324930
1472000,-2.135628,-1.632846,10.187328,3.644730,-5.257155,-0.592106
1476000,-2.030283,-1.644817,10.070012,2.820302,-5.302957,0.171253
1480000,-1.690306,-1.654393,10.019734,1.980608,-4.096850,-0.011953
1484000,-1.537078,-1.661576,9.983821,1.430989,-1.822041,-0.286762
1488000,-1.367089,-1.747767,10.005369,0.392821,0.849715,-0.790579
1492000,-1.549049,-1.860295,10.374076,0.026409,1.170325,-1.080655
1496000,-1.654393,-1.836353,10.390836,0.484424,0.895516,-1.218060
1500000,-1.716643,-1.845930,10.208876,0.438623,0.193226,-1.279129
1504000,-1.642422,-1.867477,10.041282,0.408088,0.727577,-0.912716
1508000,-1.513135,-1.924938,10.036493,0.377554,2.162692,-0.531037
1512000,-1.592144,-1.838747,10.055647,0.453890,2.697043,-0.149358
1516000,-1.541866,-1.886631,10.201694,0.728699,2.498570,0.033849
1520000,-1.491588,-1.836353,9.967062,0.957707,2.635974,-0.256228
1524000,-1.520318,-1.826776,9.727641,0.606562,3.063455,-0.408900
1528000,-1.501164,-1.702277,9.495404,-0.370538,3.658875,-0.469968
1532000,-1.446098,-1.798046,9.390059,-1.378171,3.689409,-0.714243
1536000,-1.553837,-1.666364,9.437943,-2.843820,3.414600,-1.263861
1540000,-1.659182,-1.769315,9.588778,-3.943056,1.903150,-1.767678
1544000,-1.769315,-1.707066,9.648633,-4.798018,-0.112117,-2.088289
1548000,-1.781286,-1.599327,9.701305,-5.637713,-1.180820,-2.011953
1552000,-1.908179,-1.790863,9.864111,-6.401072,-1.989980,-1.996686
1556000,-2.042254,-1.824382,10.007763,-6.752217,-2.631201,-1.706609
1560000,-2.183512,-1.790863,10.491392,-6.782751,-3.302957,-1.050121
1564000,-2.427721,-1.810017,10.965444,-6.049927,-4.325858,0.232322
1568000,-2.319981,-1.821988,11.121067,-4.523210,-4.478529,1.407894
1572000,-2.178724,-1.838747,11.173739,-2.248400,-3.440362,2.552932
1576000,-2.066196,-1.898602,11.101913,-0.340003,-1.745705,3.453696
1580000,-1.795651,-1.968034,10.917560,0.942440,-0.356392,4.339192
1584000,-1.675941,-1.965640,10.752359,1.339386,-0.096850,4.491864
1588000,-1.563414,-1.970428,10.730812,1.339386,-0.600667,4.186521
1592000,-1.316811,-1.920150,10.781090,0.362287,-2.264789,3.514765
1596000,-1.242591,-1.946486,10.802638,-0.049927,-3.104484,2.812474
1600000,-1.261744,-1.915361,10.915166,0.102745,-3.089217,2.140719
1604000,-1.470040,-1.886631,10.797850,0.789768,-3.135018,1.942245
1608000,-1.601721,-1.929727,10.568007,1.736333,-3.104484,2.064383
1612000,-1.474828,-1.855506,10.424355,2.163814,-2.341125,2.293390
1616000,-1.335965,-1.862689,10.199299,2.209615,-0.325858,2.155986
1620000,-1.256956,-1.881842,10.002975,1.675264,2.452768,1.194154
1624000,-1.072602,-1.936909,9.888053,0.698165,5.796279,0.629268
1628000,-1.036689,-1.884237,9.931149,-0.278934,9.613073,-0.454701
1632000,-1.213860,-2.044648,10.192117,-1.286568,12.406966,-1.355464
1636000,-1.403002,-2.066196,10.433931,-1.454507,13.979486,-1.324930
1640000,-1.549049,-1.977611,10.778696,-1.423972,13.704676,-1.355464
1644000,-1.587356,-1.975216,11.092337,-0.477408,12.422234,-0.973785
1648000,-1.630451,-1.903390,11.099519,1.629462,11.322997,-1.065388
1652000,-1.640028,-1.951274,10.769119,2.408089,10.345898,-1.538671
1656000,-1.908179,-1.987187,10.450690,2.927173,9.933683,-1.050121
1660000,-1.932121,-1.886631,10.206482,2.667631,8.239027,0.110184
1664000,-1.654393,-1.740585,10.187328,1.537859,5.368799,-0.302029
1668000,-1.493982,-1.692701,10.170568,0.270684,3.918417,-1.447067
1672000,-1.584962,-1.771709,9.964667,-1.393438,2.910783,-1.737144
1676000,-1.893813,-1.692701,10.184934,-3.225499,1.490936,-1.996686
1680000,-2.059013,-1.757344,10.383653,-4.324736,0.086356,-2.073022
1684000,-2.169147,-1.771709,10.445902,-4.645347,-1.012881,-1.905083
1688000,-2.142811,-1.877054,10.639832,-4.996491,-1.898377,-1.492869
1692000,-2.073379,-1.956063,10.843340,-4.904889,-2.447995,-0.927984
1696000,-2.123657,-1.965640,11.104307,-4.645347,-3.012881,0.033849
1700000,-2.082955,-1.946486,11.568783,-3.454507,-3.913644,0.995681
1704000,-1.939303,-1.912967,11.619061,-1.301835,-4.829675,1.606368
1708000,-1.855506,-2.037466,11.432313,0.438623,-4.844942,2.033848
1712000,-1.790863,-2.140416,11.135432,1.904272,-4.234255,2.186520
1716000,-1.692701,-2.078167,10.881647,2.682898,-4.081583,2.354459
1720000,-1.549049,-2.066196,10.828975,2.682898,-4.936545,2.354459
1724000,-1.374272,-1.958457,10.709264,2.408089,-6.035781,1.484230
1728000,-1.297657,-1.999158,10.591949,1.919539,-5.791507,0.537665
1732000,-1.450886,-1.963245,10.548853,1.446256,-5.928911,-0.393632
1736000,-1.568202,-1.996764,10.565612,1.339386,-5.333491,-0.332564
1740000,-1.472434,-2.013524,10.498574,1.003508,-4.722805,-0.592106
1744000,-1.606509,-1.999158,10.670957,0.927172,-4.738071,-0.622640
1748000,-1.683124,-1.872266,10.697293,1.400455,-5.348759,-0.790579
1752000,-1.695095,-1.814805,10.527305,1.049310,-5.699903,-1.202793
1756000,-1.517924,-1.889025,10.417171,0.881371,-4.829675,-1.248594
1760000,-1.553837,-1.927332,10.393229,0.667630,-2.783873,-1.370732
1764000,-1.482011,-1.936909,10.402806,0.255417,-1.135018,-1.645541
1768000,-1.508347,-1.977611,10.474632,0.163814,-0.264789,-1.798213
1772000,-1.618480,-1.932121,10.606314,-0.172064,-1.012881,-2.103556
1776000,-1.527501,-2.011129,10.649409,-0.110996,-0.982347,-2.011953
1780000,-1.441309,-1.970428,10.603919,-0.294202,-0.661736,-2.134090
1784000,-1.587356,-1.920150,10.675745,-0.523209,-0.478530,-2.851648
1788000,-1.968034,-1.898602,10.627861,0.102745,-1.531965,-3.019587
1792000,-2.286463,-1.912967,10.589554,0.545493,-2.890743,-2.378365
1796000,-2.317587,-1.994370,10.417171,0.713432,-4.005247,-1.187526
1800000,-2.070984,-1.989582,10.321404,0.988241,-4.096850,-0.240961
1804000,-1.795651,-1.963245,10.108319,0.850837,-3.654102,0.171253
1808000,-1.651999,-1.884237,10.012551,0.469157,-3.028148,0.339192
1812000,-1.611298,-1.754950,10.002975,-0.446873,-3.135018,-0.149358
1816000,-1.630451,-1.752556,9.873688,-1.378171,-3.837308,-0.424167
1820000,-1.661576,-1.805228,9.813833,-2.523209,-4.127385,-1.111190
1824000,-1.781286,-1.728614,9.892841,-3.958324,-3.562499,-1.065388
1828000,-1.845930,-1.812411,10.218452,-4.278934,-2.509064,-1.248594
1832000,-1.879448,-1.867477,10.544065,-4.080462,-1.516698,-0.836380
1836000,-1.814805,-1.877054,10.649409,-3.393438,-0.631201,-0.515770
1840000,-1.778892,-1.886631,10.872070,-2.630080,1.139791,-0.271495
1844000,-1.762132,-1.932121,10.903194,-1.927789,2.239028,-0.088289
1848000,-1.728614,-1.999158,10.898406,-1.866720,3.002386,-0.027220
1852000,-1.671153,-1.999158,10.927136,-1.698782,2.941318,0.293391
1856000,-1.659182,-2.049437,11.073183,-1.332370,2.300096,0.278123
1860000,-1.594538,-2.018312,11.027693,-1.194965,1.353531,0.140719
1864000,-1.491588,-2.047042,11.178528,-1.057560,0.254295,-0.118823
1868000,-1.426944,-2.061408,11.168951,-0.446873,-0.844942,-0.546304
1872000,-1.393425,-1.944092,11.312603,0.835569,-1.425095,-1.187526
1876000,-1.584962,-1.991976,11.020511,1.614195,-1.593034,-1.294396
1880000,-1.558625,-1.980005,10.860099,2.026409,-1.073950,-1.111190
1884000,-1.491588,-1.968034,10.606314,2.362287,-0.280056,-0.790579
1888000,-1.302446,-1.905785,10.467450,1.934806,1.506203,-1.431800
1892000,-1.347936,-1.958457,10.398018,1.492058,3.109257,-1.950884
1896000,-1.455675,-1.944092,10.500969,0.621829,3.613073,-2.576838
1900000,-1.647211,-1.994370,10.656591,0.118012,3.200860,-2.775312
1904000,-1.735796,-2.049437,10.790668,0.240150,3.124524,-2.744777
1908000,-2.080561,-2.027889,10.867282,0.469157,2.773379,-1.767678
1912000,-2.011129,-2.157176,10.826580,1.339386,1.826814,-0.714243
1916000,-1.924938,-2.061408,11.030087,1.934806,0.483302,-0.668442
1920000,-1.786075,-1.999158,10.975020,2.606562,-1.241889,-0.607373
1924000,-1.805228,-1.951274,10.919954,2.743967,-2.554866,-0.775312
1928000,-1.936909,-1.968034,10.836157,2.850837,-3.654102,-0.576838
1932000,-1.920150,-1.956063,10.807426,3.369921,-4.203721,-0.073022
1936000,-1.745373,-1.980005,10.606314,3.705798,-3.364026,-0.149358
1940000,-1.589750,-1.977611,10.474632,4.377554,-1.593034,-0.073022
1944000,-1.532289,-1.984793,10.369287,4.240149,0.025287,-0.317297
1948000,-1.515530,-1.994370,10.323798,3.690531,1.032921,-0.805846
1952000,-1.630451,-1.944092,10.400413,2.927173,0.559638,-0.989052
1956000,-1.608904,-1.874660,10.465055,2.362287,-0.921278,-1.019587
1960000,-1.649605,-1.865083,10.565612,1.980608,-1.608301,-1.416533
1964000,-1.721431,-1.910573,10.596737,2.392821,-1.654102,-1.599739
1968000,-1.738190,-1.920150,10.647015,3.324119,-1.318224,-1.340197
1972000,-1.661576,-1.999158,10.582372,3.950073,0.712310,-1.401266
1976000,-1.572991,-1.965640,10.508151,4.453890,2.452768,-1.798213
1980000,-1.630451,-1.915361,10.551247,4.713432,3.918417,-1.798213
1984000,-1.778892,-1.970428,10.484209,4.484425,3.399333,-1.950884
1988000,-1.726219,-1.939303,10.505757,4.133279,2.513837,-1.966151
1992000,-1.599327,-2.023100,10.481815,3.598928,1.582539,-2.210426
1996000,-1.611298,-2.056619,10.352529,3.324119,1.643608,-2.454701
