time_us,ax,ay,az,gx,gy,gz
0,1.144428,0.500388,10.766725,3.003508,-1.409827,-1.156991
4000,1.230620,0.462081,10.699687,2.789768,-1.440362,-0.698976
8000,1.309628,0.450110,10.692505,2.392821,-1.241889,-0.653174
12000,1.256956,0.368707,10.740389,2.087478,-1.028148,-0.531037
16000,1.237802,0.390255,10.670957,1.461524,-0.906011,-0.408900
20000,1.122881,0.407014,10.666168,1.018775,-0.921278,-0.027220
24000,1.154005,0.476446,10.817003,0.667630,-1.012881,0.430795
28000,1.206678,0.433351,10.840945,0.728699,-0.081583,0.965146
32000,1.379060,0.378284,10.793061,0.896638,0.681776,1.209421
36000,1.438915,0.371101,10.761936,1.156180,2.147424,1.010948
40000,1.470040,0.361524,10.663774,0.881371,3.078722,0.644536
44000,1.549049,0.385466,10.606314,0.469157,3.246661,0.323925
48000,1.544260,0.399832,10.596737,0.560760,2.956585,-0.011953
52000,1.450886,0.390255,10.577583,0.011142,1.994753,-0.332564
56000,1.323994,0.435745,10.814610,-0.248400,1.002386,-0.546304
60000,1.230620,0.457293,10.924743,0.301218,0.223760,-0.439434
64000,1.458069,0.402226,11.056423,0.789768,0.223760,-0.317297
68000,1.596933,0.452504,10.893618,1.614195,1.048188,-0.576838
72000,1.683124,0.373495,10.773908,1.782134,1.429867,-1.095922
76000,1.503559,0.277727,10.644621,1.339386,1.048188,-1.523403
80000,1.398214,0.296881,10.584765,0.927172,-0.539598,-1.721877
84000,1.168370,0.296881,10.692505,0.347020,-2.463263,-1.752411
88000,1.165976,0.287304,10.807426,0.148546,-3.822041,-1.599739
92000,1.211466,0.320823,10.800244,-0.019392,-3.883110,-1.309663
96000,1.185130,0.265756,10.948685,-0.049927,-3.226621,-1.126457
100000,1.192312,0.272939,11.044453,0.240150,-2.264789,-0.744777
104000,1.307234,0.356736,10.850522,0.682898,-1.654102,-0.210426
108000,1.290475,0.330400,10.845734,0.682898,-1.547232,-0.225693
112000,1.398214,0.275333,10.912771,1.049310,-1.440362,-0.149358
116000,1.474828,0.292093,10.795456,1.095111,-1.272423,-0.149358
120000,1.620875,0.311246,10.778696,1.064577,-1.409827,-0.439434
124000,1.498770,0.330400,10.797850,0.972974,-1.593034,-0.897449
128000,1.446098,0.335188,10.706870,0.713432,-1.822041,-0.958518
132000,1.496376,0.294487,10.718841,0.423356,-2.356392,-0.943251
136000,1.570596,0.313640,10.737994,0.453890,-2.524331,-0.973785
140000,1.592144,0.349553,10.697293,-0.004125,-2.310591,-1.340197
144000,1.532289,0.220267,10.790668,-0.141530,-2.417461,-1.462335
148000,1.446098,0.232238,10.800244,-0.309469,-1.806774,-1.538671
152000,1.434127,0.306458,10.826580,-0.263667,-1.028148,-1.630274
156000,1.513135,0.260968,10.838552,-0.065194,0.055821,-1.950884
160000,1.496376,0.284910,10.812215,-0.156797,1.277195,-2.332564
164000,1.381454,0.325611,10.805033,0.026409,1.597806,-2.454701
168000,1.333570,0.332794,10.807426,0.026409,1.093989,-2.393632
172000,1.352724,0.335188,10.749966,-0.080461,0.651241,-2.225693
176000,1.285686,0.395043,10.709264,-0.141530,0.162692,-2.256228
180000,1.290475,0.339977,10.625467,-0.538476,-0.829675,-2.011953
184000,1.197101,0.356736,10.591949,-0.965957,-1.562499,-1.676075
188000,1.189918,0.368707,10.658986,-1.194965,-1.837308,-1.447067
192000,1.221043,0.440533,10.754754,-1.591912,-2.157919,-1.004319
196000,1.240196,0.445322,10.620679,-1.423972,-2.463263,-0.653174
200000,1.326388,0.385466,10.740389,-1.439240,-1.852576,-0.515770
204000,1.391031,0.438139,10.824186,-1.469774,-1.715171,-0.363098
208000,1.501164,0.344765,10.821792,-1.683514,-1.745705,-0.271495
212000,1.558625,0.330400,10.821792,-1.240766,-2.096850,-0.363098
216000,1.594538,0.253785,10.733206,-1.256034,-2.081583,-0.821113
220000,1.599327,0.272939,10.714052,-1.240766,-1.333492,-1.080655
224000,1.556231,0.229843,10.572795,-1.347636,-1.470896,-1.126457
228000,1.422156,0.225055,10.460267,-1.927789,-0.753339,-1.126457
232000,1.228225,0.232238,10.378864,-2.859087,-0.677003,-0.683709
236000,1.240196,0.225055,10.500969,-3.332370,-1.318224,-0.027220
240000,1.405396,0.272939,10.697293,-3.423972,-1.745705,0.217055
244000,1.556231,0.251391,10.821792,-3.332370,-1.180820,0.400261
248000,2.006341,0.162806,10.788273,-3.072828,-0.173186,-0.500503
252000,2.238579,0.177171,10.740389,-3.103362,1.674142,-2.225693
256000,2.011129,0.093374,10.900801,-2.950690,2.727577,-3.874548
260000,1.572991,0.064643,10.984597,-3.057560,2.468035,-4.912716
264000,1.273715,-0.016759,10.994174,-2.782751,1.994753,-4.912716
268000,1.165976,0.026336,11.104307,-2.324736,2.361165,-4.805846
272000,1.058237,-0.057461,11.171345,-2.355270,3.796279,-4.317297
276000,1.079785,-0.148441,11.252748,-2.507942,4.620707,-3.950884
280000,0.967257,-0.181959,11.293449,-2.569010,5.384066,-3.492869
284000,0.881066,-0.217872,11.386824,-2.981224,5.124524,-2.927984
288000,0.725443,-0.237026,11.360487,-3.271301,3.857348,-2.317297
292000,0.620098,-0.203507,11.434708,-2.889621,2.452768,-1.370732
296000,0.732626,-0.263362,11.585542,-2.645346,0.971852,-0.760045
300000,0.902614,-0.294487,11.717223,-1.943056,0.223760,-0.317297
304000,0.902614,-0.342371,11.674128,-1.149163,-0.478530,-0.195159
308000,1.029507,-0.342371,11.628637,-0.553744,-1.699904,-0.179892
312000,1.106121,-0.442927,11.516110,0.347020,-2.020514,-0.454701
316000,1.247379,-0.392649,11.319786,0.453890,-2.173186,-0.958518
320000,1.309628,-0.363919,11.322180,0.240150,-1.043415,-1.324930
324000,1.180341,-0.430956,11.264719,0.072211,-0.188453,-1.767678
328000,1.034295,-0.375890,11.269507,0.331753,0.330631,-1.828747
332000,0.833182,-0.368707,11.288661,0.148546,0.422234,-1.385999
336000,0.845153,-0.361524,11.264719,0.209615,0.330631,-0.851648
340000,0.995988,-0.354342,11.152191,0.194348,0.910783,-0.286762
344000,0.988805,-0.459687,11.073183,-0.034660,1.353531,0.247589
348000,1.094150,-0.591368,11.066000,-0.675881,1.536737,0.476597
352000,1.024718,-0.555455,11.123461,-1.500308,0.712310,0.552933
356000,1.058237,-0.581791,11.422736,-1.515576,-0.814408,0.720871
360000,1.017536,-0.699107,11.674128,-1.561377,-1.883110,1.041482
364000,1.055843,-0.792481,11.803414,-1.057560,-2.600667,1.117818
368000,1.103727,-0.818817,12.026075,-0.187331,-2.997614,1.285757
372000,1.175553,-0.876278,12.188881,0.347020,-2.783873,1.423162
376000,1.376666,-0.976834,12.174516,1.217249,-2.982346,1.102551
380000,1.343147,-1.206678,12.181698,1.446256,-3.867843,0.736139
384000,1.400608,-1.288081,12.191275,1.171447,-4.066316,-0.042487
388000,1.252167,-1.347936,12.394782,1.644730,-4.570133,-0.576838
392000,1.029507,-1.479617,12.571953,1.995875,-5.196087,-0.500503
396000,0.979228,-1.537078,12.840104,3.003508,-5.654102,-0.042487
400000,0.945710,-1.489193,12.885593,4.331753,-4.600667,0.354459
404000,1.029507,-1.663970,12.938266,5.049310,-2.906011,0.446062
408000,1.000776,-1.754950,12.844893,5.614195,-0.615934,0.583467
412000,0.790087,-1.793257,12.861651,6.056943,0.315363,0.705604
416000,0.658405,-1.865083,12.871228,6.560760,0.758111,1.331558
420000,0.675165,-1.924938,12.734758,7.018775,1.384066,2.323925
424000,0.782904,-1.924938,12.665327,7.278317,2.605440,2.843009
428000,0.957681,-1.891419,12.648567,7.751600,4.193226,3.209421
432000,0.984017,-1.869871,12.717999,8.240149,5.368799,3.316291
436000,1.149217,-1.798046,12.945449,8.972974,5.506203,3.423162
440000,1.149217,-1.898602,12.959814,10.514958,5.506203,3.331558
444000,1.261744,-1.900996,13.034034,12.438622,5.536737,3.148352
448000,1.259350,-1.862689,13.019669,14.469157,6.147425,2.827742
452000,1.249773,-1.917756,12.926295,16.866104,6.941318,2.781940
456000,1.422156,-1.980005,12.799402,18.835569,6.773379,2.552932
460000,1.587356,-1.980005,12.497733,20.774502,6.223761,2.140719
464000,1.836353,-2.023100,12.303802,21.904272,5.613073,1.087284
468000,1.731008,-2.066196,12.040441,22.713432,4.483303,-0.164625
472000,1.594538,-2.140416,11.681310,23.522593,3.063455,-0.698976
476000,1.529895,-2.272097,11.386824,23.690533,1.719944,-1.447067
480000,1.412579,-2.173935,11.317391,23.690533,0.269562,-1.676075
484000,1.462857,-2.164358,11.034876,23.904272,-1.440362,-1.889816
488000,1.462857,-2.118869,10.874464,23.293585,-2.356392,-2.134090
492000,1.400608,-2.154782,10.812215,22.774502,-3.241888,-2.179892
496000,1.295263,-2.152387,10.800244,22.087479,-4.112117,-2.256228
500000,1.074997,-2.272097,10.919954,21.873737,-5.531965,-2.256228
504000,1.058237,-2.190695,11.070788,22.011143,-7.425095,-2.164625
508000,1.010353,-2.133234,11.202470,22.423357,-7.409827,-1.981419
512000,0.861913,-2.126051,11.295844,22.972975,-6.035781,-2.011953
516000,0.533907,-1.994370,11.219229,23.843204,-4.554865,-1.859281
520000,0.220267,-1.893813,11.195287,24.438623,-3.043415,-0.500503
524000,0.019154,-1.750161,11.470620,25.812670,-1.913644,1.194154
528000,-0.069432,-1.654393,11.552023,27.751600,-1.211354,3.010948
532000,0.043096,-1.656788,11.518504,29.721066,-0.081583,4.751406
536000,0.217872,-1.620875,11.377247,31.583662,1.796279,6.415528
540000,0.308852,-1.460463,10.922348,32.957706,3.567272,7.804841
544000,0.555455,-1.472434,10.520123,33.247784,3.719944,9.224688
548000,0.826000,-1.367089,10.081984,32.835567,2.422234,10.064383
552000,1.079785,-1.280898,10.022128,32.056942,0.239028,10.217054
556000,1.309628,-1.266533,10.115502,31.980608,-3.135018,10.079650
560000,1.424550,-1.266533,10.330980,32.270683,-5.730438,9.896443
564000,1.470040,-1.228225,10.402806,33.339386,-6.646469,10.140718
568000,1.477222,-1.261744,10.512939,35.140911,-7.226621,10.186520
572000,1.513135,-1.237802,10.429143,36.224884,-8.157919,10.384994
576000,1.663970,-1.211466,10.508151,38.438625,-8.768606,10.461329
580000,1.759738,-1.278504,10.034100,39.736332,-9.058682,10.262856
584000,1.893813,-1.453280,9.603143,40.087479,-9.440362,9.743772
588000,1.666364,-1.561020,9.291897,39.201981,-10.600668,9.392627
592000,1.534683,-1.529895,9.246407,37.904274,-14.203721,9.438428
596000,1.599327,-1.501164,9.244013,36.316486,-18.417461,9.072016
600000,1.886631,-1.503559,9.210494,34.621830,-21.348759,8.155986
604000,2.082955,-1.465251,9.050082,32.820301,-21.058683,6.568200
608000,1.850718,-1.458069,8.904037,30.805037,-18.051048,5.041482
612000,1.467646,-1.436521,8.882488,28.667631,-14.631202,4.064383
616000,0.957681,-1.412579,8.985439,26.377556,-12.035782,4.232322
620000,0.581791,-1.221043,9.179369,24.438623,-10.677003,4.888811
624000,0.586579,-1.110910,9.074024,22.560760,-8.936545,5.774307
628000,0.584185,-1.122881,9.047688,20.820303,-7.211354,7.056749
632000,0.634463,-1.096544,9.502586,18.942440,-5.715171,7.652170
636000,0.835576,-0.993594,10.089166,17.843203,-4.921278,7.850643
640000,0.948104,-0.998382,10.587160,18.163815,-5.226621,7.621635
644000,0.890643,-1.022324,11.125855,19.568394,-5.333491,6.797207
648000,0.746991,-1.003170,11.367670,21.492058,-5.944179,6.461329
652000,0.567426,-1.005565,11.563994,23.751600,-6.157919,6.217055
656000,0.562637,-0.878672,11.374852,26.087479,-7.318224,6.140719
660000,0.816423,-0.703895,10.948685,26.972975,-7.577766,6.125452
664000,0.816423,-0.634463,10.206482,26.301220,-9.913645,5.667437
668000,0.775721,-0.533907,9.655815,23.904272,-13.669370,5.484231
672000,0.950498,-0.272939,9.516952,21.064577,-17.806774,5.560566
676000,1.120486,-0.167594,9.265560,17.797401,-22.203720,4.904078
680000,1.529895,-0.019154,9.141062,14.637096,-25.165552,3.865910
684000,2.300828,0.112527,8.844181,11.430989,-24.615934,1.591100
688000,2.528277,0.210690,8.997410,8.957706,-21.593035,-1.691342
692000,1.934515,0.332794,8.971074,6.850837,-20.585400,-3.767678
696000,1.197101,0.399832,8.865729,4.545493,-22.692270,-4.286762
700000,0.876278,0.469264,9.153033,2.514959,-25.150286,-4.240961
704000,0.857124,0.550666,9.361329,1.293585,-26.280056,-3.996686
708000,0.696713,0.505177,9.440337,-0.401072,-26.264790,-3.187526
712000,0.593762,0.366313,9.172187,-2.965957,-25.623568,-2.042487
716000,0.289698,0.354342,9.495404,-6.217866,-25.440363,-1.141724
720000,0.251391,0.526724,10.065224,-8.416339,-25.257156,-0.088289
724000,0.418985,0.567426,10.199299,-9.378171,-23.654102,1.010948
728000,0.955287,0.454898,10.079589,-10.965958,-19.654102,0.965146
732000,1.407791,0.507571,10.115502,-12.630080,-13.684637,-0.164625
736000,1.412579,0.715866,10.589554,-13.240767,-7.577766,-1.905083
740000,1.005565,0.890643,11.063606,-12.401073,-4.310591,-2.393632
744000,0.785298,1.019930,11.137826,-10.645347,-2.829675,-2.027220
748000,1.098939,1.094150,10.903194,-9.378171,-0.066316,-1.553938
752000,1.434127,1.230620,10.544065,-9.057561,3.796279,-1.447067
756000,1.661576,1.273715,10.012551,-9.958323,6.758111,-1.935617
760000,1.831564,1.244985,9.643845,-12.340003,7.445135,-3.202793
764000,2.049437,1.151611,9.229648,-16.110994,6.208493,-4.821113
768000,2.090138,1.278504,9.457097,-20.034658,2.635974,-7.111189
772000,1.800440,1.486799,10.019734,-22.049927,-1.669369,-8.714244
776000,1.702277,1.628057,10.635044,-22.187330,-5.150285,-9.523404
780000,1.735796,1.742979,10.776301,-21.347635,-6.890743,-9.202793
784000,2.181118,1.898602,10.680533,-20.584276,-7.715171,-9.279129
788000,2.916138,1.810017,10.467450,-20.599545,-8.096850,-10.271496
792000,3.543418,1.802834,10.223241,-22.523209,-8.447996,-12.912717
796000,3.725378,1.889025,10.510546,-24.630079,-11.989981,-16.195160
800000,3.811569,2.111686,11.135432,-25.408705,-18.722805,-19.279127
804000,4.127604,2.269703,11.590330,-24.706415,-22.539598,-22.363098
808000,4.584896,2.327164,11.635820,-23.088095,-21.593035,-25.889814
812000,4.721366,2.327164,11.401189,-21.714048,-17.150286,-29.737143
816000,4.429273,2.382231,11.386824,-21.103361,-13.165553,-33.462334
820000,3.933673,2.468422,11.152191,-21.149162,-10.218988,-36.408897
824000,3.335123,2.533065,10.850522,-21.714048,-10.371660,-38.286762
828000,3.057395,2.602497,10.682928,-22.675880,-10.509065,-39.187527
832000,2.987964,2.645593,10.436325,-24.080460,-8.020514,-39.691341
836000,3.064578,2.801216,10.149021,-25.591911,-3.974713,-40.103554
840000,3.114856,2.813187,9.842564,-27.698780,1.781012,-40.225693
844000,2.932897,2.815581,9.756371,-30.401070,6.758111,-40.851646
848000,2.703054,2.839523,10.216059,-32.507942,7.750478,-41.294395
852000,2.609680,2.844312,10.709264,-33.317101,7.200860,-41.508137
856000,2.837129,2.971204,11.010934,-32.889622,7.460402,-42.408897
860000,2.995146,2.880225,10.967838,-31.973591,10.330630,-43.691341
864000,2.923320,2.786851,11.085154,-31.805653,12.758111,-45.111191
868000,2.377442,2.908955,11.540052,-31.133896,12.437500,-46.393631
872000,1.798046,3.112462,12.033257,-28.752216,9.368798,-46.454700
876000,1.790863,3.004723,11.987768,-26.660612,5.658875,-45.874546
880000,2.272097,2.820370,11.446678,-25.301834,4.101623,-46.240959
884000,2.772485,2.738967,11.006145,-26.294201,4.849715,-48.134090
888000,2.667141,2.822764,11.173739,-27.454506,4.254295,-51.401264
892000,2.133234,2.932897,11.585542,-27.744583,0.361165,-53.599739
896000,1.707066,3.059790,12.047623,-26.752216,-5.699903,-55.324928
900000,1.558625,3.134010,12.224793,-24.782751,-9.058682,-56.011951
904000,1.699883,3.043030,11.947066,-22.065193,-8.615934,-56.683708
908000,1.707066,2.942474,11.257536,-20.553743,-4.112117,-57.691341
912000,1.134852,3.011906,10.603919,-20.889620,-0.585400,-58.515770
916000,0.512359,3.124433,10.244789,-22.675880,-0.768606,-58.271496
920000,0.251391,3.167529,10.321404,-24.721682,-3.379293,-57.447067
924000,0.026336,3.318364,10.508151,-25.927788,-5.684637,-56.164623
928000,0.148441,3.311181,10.982203,-25.637712,-6.188453,-54.760044
932000,0.225055,3.287239,11.089942,-24.523209,-3.196087,-52.973785
936000,0.287304,3.220201,11.188105,-23.301834,0.071089,-51.599739
940000,0.246603,3.224990,11.659762,-21.118628,0.284829,-50.576839
944000,0.220267,3.244143,12.088325,-18.065193,-2.173186,-49.676075
948000,0.610521,3.141193,12.193669,-14.813285,-5.409827,-49.492870
952000,0.914585,3.043030,11.973403,-11.912522,-6.722805,-49.782944
956000,1.024718,2.956839,11.796232,-9.775118,-6.677003,-49.920349
960000,0.600945,2.973598,11.611878,-8.248401,-7.883110,-49.431801
964000,0.189142,3.076549,11.501745,-7.637713,-10.738072,-48.088287
968000,-0.136469,3.105280,11.523293,-7.286569,-14.814408,-46.286762
972000,-0.256180,3.066972,11.583148,-7.454507,-18.646469,-43.935616
976000,-0.263362,3.026271,11.853693,-6.401072,-19.364027,-41.233326
980000,-0.095768,3.141193,11.789049,-5.240767,-18.081583,-39.263863
984000,-0.181959,3.021482,11.733982,-5.179698,-13.119752,-37.233326
988000,-0.222661,2.971204,12.129025,-3.347636,-9.638836,-34.973785
992000,-0.356736,3.215413,12.054806,-0.004125,-8.035782,-32.607372
996000,-0.387861,3.148375,11.722012,0.087478,-5.089217,-30.179892
1000000,-0.282516,2.959233,11.894394,0.942440,-3.898377,-28.408899
1004000,-0.234632,3.031059,12.021287,2.713432,-4.005247,-26.760044
1008000,-0.095768,3.052607,11.937490,3.690531,-3.837308,-24.714243
1012000,0.287304,2.846706,11.659762,4.682898,-4.585400,-23.569204
1016000,0.672771,2.806004,11.300632,5.476791,-4.722805,-22.851646
1020000,0.720655,2.868254,10.946290,5.247783,-5.577766,-22.622639
1024000,0.531513,2.588132,10.599131,4.224883,-7.776239,-21.248594
1028000,0.474052,2.789245,10.450690,3.904272,-10.936545,-19.859282
1032000,0.392649,2.782062,10.541670,2.774501,-12.417461,-18.225693
1036000,0.447716,2.628834,10.496181,2.682898,-12.982347,-16.454700
1040000,0.885855,2.724602,10.505757,3.568394,-12.967080,-14.332564
1044000,1.312023,2.676718,10.328587,3.980608,-9.470897,-13.431801
1048000,1.498770,2.590526,9.890448,2.805035,-5.333491,-13.263862
1052000,1.429338,2.401384,10.096349,2.056943,-4.524331,-13.095922
1056000,1.438915,2.413355,10.409989,3.095111,-5.455629,-12.515770
1060000,1.453280,2.370260,10.175357,4.423356,-5.822041,-11.462335
1064000,1.551443,2.243367,9.598354,4.682898,-4.844942,-11.050121
1068000,1.467646,2.068590,9.437943,3.553127,-3.669369,-10.363098
1072000,1.264138,2.020706,9.844957,2.957707,-5.302957,-9.782946
1076000,1.043872,1.977611,10.448297,3.476791,-8.570133,-8.576838
1080000,1.149217,1.948880,10.711658,4.331753,-11.394561,-7.340197
1084000,1.256956,1.781286,10.757148,6.224882,-11.135018,-5.691342
1088000,1.158794,1.551443,10.673351,7.369921,-9.043416,-4.195159
1092000,1.130063,1.345541,10.948685,8.576028,-7.486163,-2.973785
1096000,1.300052,1.352724,11.032481,9.263050,-7.883110,-2.057755
1100000,1.019930,1.233014,11.403583,10.316485,-9.837309,-1.431800
1104000,1.096544,1.230620,11.245565,10.560760,-10.753339,-0.882182
1108000,1.244985,1.175553,11.106702,11.751600,-11.333492,-0.057755
1112000,1.482011,1.182736,11.046846,11.950073,-10.768606,0.476597
1116000,1.984793,1.017536,10.919954,11.827936,-8.356393,-0.011953
1120000,2.178724,0.969652,10.826580,10.988241,-5.867843,-1.889816
1124000,2.161964,0.919373,10.718841,9.507325,-3.623568,-3.874548
1128000,1.788469,1.070208,10.740389,8.240149,-1.608301,-5.187525
1132000,1.441309,1.118092,10.706870,7.415722,0.025287,-5.477602
1136000,1.118092,1.156399,10.692505,6.927173,2.101623,-4.760045
1140000,0.933739,1.165976,10.486604,6.316485,4.071089,-3.233327
1144000,0.926556,1.161188,10.256760,4.881371,5.429867,-2.042487
1148000,1.043872,1.134852,10.196905,3.171447,4.468035,-0.912716
1152000,1.261744,1.204283,10.160992,1.171447,3.109257,-0.118823
1156000,1.503559,1.273715,10.204087,-0.660614,1.750478,0.064383
1160000,1.606509,1.297657,10.273520,-1.347636,1.017653,0.247589
1164000,1.484405,1.173159,10.218452,-2.141530,0.193226,0.384994
1168000,1.405396,1.259350,10.493786,-2.507942,-0.768606,0.614001
1172000,1.525106,1.156399,10.929531,-1.790385,-1.440362,0.797207
1176000,1.680730,1.192312,11.094730,-0.431606,-1.104484,0.843009
1180000,1.841141,1.122881,11.020511,1.125646,0.345898,0.736139
1184000,1.970428,1.024718,10.785878,1.873737,3.597806,0.155986
1188000,1.867477,1.029507,10.620679,2.316485,6.483303,-0.134090
1192000,1.477222,1.007959,10.541670,2.316485,6.406967,0.140719
1196000,1.256956,0.928950,10.594342,1.766867,4.651241,0.461329
1200000,1.187524,0.938527,10.560823,0.850837,2.391699,1.423162
1204000,1.163582,0.885855,10.840945,1.400455,0.864982,2.262856
1208000,1.371878,0.883460,10.850522,1.751600,0.590173,3.133085
1212000,1.666364,0.864307,10.702082,2.270684,2.422234,3.133085
1216000,1.781286,0.811634,10.486604,1.843203,4.544371,2.827742
1220000,1.522712,0.840365,10.359711,0.789768,4.513837,2.675070
1224000,1.297657,0.830788,10.608707,-0.095728,1.903150,2.873543
1228000,1.355118,0.873884,10.869676,-0.233133,-0.661736,3.270490
1232000,1.939303,0.821211,10.996569,0.331753,-0.447995,2.644536
1236000,2.286463,0.782904,10.982203,0.789768,1.704676,1.163620
1240000,2.200271,0.799663,10.845734,0.728699,4.116890,-0.118823
1244000,1.714248,0.876278,10.852917,0.576027,4.788646,-0.805846
1248000,1.312023,0.916979,10.781090,-0.233133,3.384066,-0.500503
1252000,1.125275,1.046266,10.594342,-0.920156,1.796279,0.247589
1256000,1.091756,1.024718,10.465055,-1.912522,1.735211,0.995681
1260000,1.165976,1.005565,10.642226,-2.660614,2.345898,1.988047
1264000,1.379060,1.079785,10.891224,-3.133896,3.597806,2.430795
1268000,1.517924,1.185130,10.884041,-3.469774,4.177959,2.568200
1272000,1.663970,1.146823,10.809821,-3.439240,4.223761,2.614001
1276000,1.446098,1.074997,10.642226,-3.836186,3.002386,2.934612
1280000,1.127669,1.065420,10.309433,-4.553743,1.384066,3.285757
1284000,1.029507,1.039083,10.235212,-5.607179,-0.341125,3.957513
1288000,1.051055,1.106121,10.493786,-5.652981,-1.837308,5.041482
1292000,1.247379,0.991199,10.812215,-5.378171,-2.066316,5.896444
1296000,1.589750,0.969652,10.982203,-4.477407,-0.005247,6.323925
1300000,1.735796,0.907402,10.979809,-3.729316,3.613073,6.308658
1304000,1.747767,0.804452,11.128249,-2.981224,6.620707,6.278123
1308000,1.671153,0.754174,11.077971,-1.729316,8.391699,6.491864
1312000,1.802834,0.670376,11.094730,-0.904888,9.322997,6.323925
1316000,1.855506,0.550666,11.008539,-0.553744,9.704676,5.606368
1320000,1.853112,0.572214,10.876859,-0.004125,10.116890,5.010948
1324000,1.769315,0.500388,10.819398,-0.172064,9.903150,4.812475
1328000,1.824382,0.445322,10.941502,-0.416339,8.834447,4.476597
1332000,1.685518,0.488417,11.255142,-0.630080,7.704676,4.018581
1336000,1.683124,0.486023,11.456255,-0.172064,6.819180,3.743773
1340000,1.685518,0.445322,11.635820,1.278317,6.330631,3.713238
1344000,1.855506,0.447716,11.489774,2.209615,6.574905,3.453696
1348000,1.912967,0.363919,11.235989,3.003508,7.964219,2.522398
1352000,1.635240,0.433351,11.075577,3.095111,7.613074,2.079650
1356000,1.209072,0.497994,10.977415,2.591295,5.353531,2.201787
1360000,0.957681,0.538695,11.094730,2.545493,2.544371,2.736139
1364000,1.070208,0.512359,11.034876,2.087478,1.826814,3.575833
1368000,1.154005,0.502782,10.730812,1.629462,2.956585,4.323925
1372000,1.264138,0.442927,10.723629,0.331753,5.017653,4.995681
1376000,1.285686,0.507571,10.955867,-0.477408,5.857348,5.392627
1380000,1.400608,0.471658,11.092337,-1.027026,4.926051,5.530032
1384000,1.448492,0.502782,11.190498,-0.981224,3.170325,5.560566
1388000,1.594538,0.481235,11.049241,-0.569010,2.025287,5.239955
1392000,1.683124,0.462081,10.929531,-0.110996,2.177959,4.797207
1396000,1.508347,0.409408,10.900801,0.270684,2.025287,4.705605
1400000,1.352724,0.471658,11.001357,0.102745,1.536737,4.781940
1404000,1.288081,0.418985,11.032481,0.545493,0.620707,4.995681
1408000,1.407791,0.383072,10.819398,0.682898,0.574905,4.858276
1412000,1.414973,0.404620,10.709264,0.133279,1.613073,4.995681
1416000,1.314417,0.462081,10.778696,0.056943,3.155058,5.362093
1420000,1.285686,0.378284,10.869676,0.087478,3.368799,5.682703
1424000,1.474828,0.433351,10.958261,0.438623,2.803913,5.926979
1428000,1.594538,0.289698,10.831368,0.927172,2.254295,5.575833
1432000,1.613692,0.136469,10.737994,0.224882,0.834447,5.209421
1436000,1.596933,0.189142,11.286267,-0.065194,-1.974713,4.461329
1440000,1.628057,0.256180,11.700463,0.713432,-4.173186,3.820108
1444000,1.714248,0.287304,12.069171,2.408089,-4.753339,3.239955
1448000,1.695095,0.268151,12.064383,4.301219,-2.844942,2.919345
1452000,1.651999,0.244209,11.906365,6.056943,0.406966,2.690337
1456000,1.628057,0.272939,11.705252,7.369921,4.025287,2.354459
1460000,1.561020,0.280122,11.391612,8.011142,5.552005,2.400261
1464000,1.635240,0.282516,11.317391,7.766867,4.468035,2.247589
1468000,1.671153,0.316035,11.137826,7.308852,2.025287,1.728505
1472000,1.731008,0.385466,11.080365,6.942440,-0.646469,1.377360
1476000,1.613692,0.481235,11.013328,6.911905,-2.722805,1.270490
1480000,1.649605,0.399832,10.998962,6.667630,-3.012881,1.392627
1484000,1.577779,0.457293,10.838552,6.408089,-2.310591,1.331558
1488000,1.426944,0.497994,10.637438,5.889005,-1.394560,1.636902
1492000,1.323994,0.469264,10.536881,5.263051,-0.356392,1.835375
1496000,1.228225,0.512359,10.386047,3.889004,-0.035782,2.797207
1500000,1.163582,0.565032,10.553641,3.125646,0.559638,3.224688
1504000,1.180341,0.605733,10.603919,2.408089,1.170325,4.217055
1508000,1.161188,0.641646,10.716447,2.087478,2.086356,5.209421
1512000,1.426944,0.641646,10.814610,2.377554,1.964218,5.774307
1516000,1.651999,0.555455,10.814610,2.377554,2.071089,5.972780
1520000,1.795651,0.526724,10.692505,2.087478,1.399333,5.468963
1524000,1.759738,0.588974,10.728417,1.873737,-0.066316,4.827742
1528000,1.747767,0.493206,10.809821,1.889004,-2.264789,4.400261
1532000,1.814805,0.502782,10.778696,2.011142,-3.699904,3.926979
1536000,1.865083,0.517148,10.740389,1.873737,-4.264789,3.316291
1540000,1.963245,0.555455,10.819398,1.980608,-4.051049,2.583467
1544000,2.006341,0.529119,10.860099,2.163814,-3.837308,1.621635
1548000,1.927332,0.600945,10.663774,1.919539,-3.394560,1.087284
1552000,1.714248,0.572214,10.582372,1.675264,-4.005247,0.430795
1556000,1.503559,0.610521,10.563218,0.927172,-5.058682,0.339192
1560000,1.400608,0.584185,10.702082,0.560760,-6.783873,0.415528
1564000,1.417367,0.644040,10.831368,0.392821,-7.745705,0.644536
1568000,1.424550,0.634463,10.948685,0.484424,-7.654102,0.797207
1572000,1.620875,0.620098,11.089942,0.820302,-6.432728,0.537665
1576000,1.632846,0.600945,11.269507,1.690531,-4.692270,0.247589
1580000,1.589750,0.648829,11.319786,2.606562,-3.226621,-0.057755
1584000,1.501164,0.490811,11.209652,3.217249,-2.341125,-0.347831
1588000,1.256956,0.509965,11.133038,3.583661,-1.440362,-0.592106
1592000,1.115698,0.577003,11.111490,3.644730,-1.822041,0.094917
1596000,1.048660,0.502782,11.003751,3.629463,-2.157919,0.598734
1600000,1.173159,0.512359,10.896012,3.369921,-1.608301,1.285757
1604000,1.156399,0.464475,10.702082,2.499691,-0.478530,1.682703
1608000,1.113304,0.421380,10.601525,1.125646,-0.310591,2.354459
1612000,1.134852,0.428562,10.848128,0.224882,-1.516698,2.812474
1616000,1.357512,0.469264,11.104307,0.331753,-2.585400,3.224688
1620000,1.434127,0.442927,11.367670,0.499691,-2.310591,3.163620
1624000,1.453280,0.409408,11.291056,1.446256,-1.226621,3.209421
1628000,1.496376,0.471658,11.125855,2.270684,0.452768,3.438429
1632000,1.474828,0.452504,11.080365,2.698165,2.468035,3.301024
1636000,1.383849,0.402226,11.113884,3.079844,2.819180,3.499497
1640000,1.443704,0.409408,11.080365,2.927173,1.903150,3.270490
1644000,1.616086,0.387861,11.082760,3.354653,0.101623,3.224688
1648000,1.697489,0.486023,11.056423,3.659997,-1.180820,2.629268
1652000,1.584962,0.464475,11.001357,3.827936,-2.234255,2.537665
1656000,1.391031,0.423774,10.941502,4.194348,-3.638835,2.858276
1660000,1.319205,0.519542,10.833763,4.621829,-4.356392,3.423162
1664000,1.376666,0.495600,10.625467,4.453890,-4.600667,3.682703
1668000,1.462857,0.428562,10.448297,4.270684,-3.837308,3.575833
1672000,1.544260,0.481235,10.299856,3.537859,-2.844942,3.682703
1676000,1.857901,0.428562,10.275913,2.835569,-1.730438,3.438429
1680000,1.867477,0.452504,10.125079,1.827936,-1.058682,2.690337
1684000,1.618480,0.459687,10.228029,0.667630,-1.516698,2.354459
1688000,1.436521,0.438139,10.426748,0.194348,-2.875476,2.705604
1692000,1.477222,0.493206,10.393229,-0.095728,-4.127385,3.270490
1696000,1.484405,0.361524,10.383653,-0.507942,-4.112117,3.545299
1700000,1.723825,0.289698,10.613496,-0.874354,-4.310591,3.178887
1704000,1.963245,0.383072,11.133038,-0.462140,-4.982347,2.751406
1708000,2.092532,0.380678,11.523293,0.682898,-6.417461,1.331558
1712000,1.956063,0.356736,11.590330,2.163814,-6.707537,0.201787
1716000,1.750161,0.284910,11.559206,3.308852,-5.684637,-0.668442
1720000,1.482011,0.375890,11.413159,4.316485,-4.677003,-0.836380
1724000,1.288081,0.351948,11.164163,5.201982,-3.379293,-0.424167
1728000,1.146823,0.395043,10.982203,5.095111,-1.822041,0.003314
1732000,1.154005,0.359130,10.958261,4.270684,-1.318224,0.384994
1736000,1.122881,0.344765,10.996569,3.553127,-1.562499,0.781940
1740000,1.321599,0.404620,11.252748,3.385188,-1.791507,0.843009
1744000,1.570596,0.395043,11.377247,3.553127,-1.822041,0.384994
1748000,1.410185,0.442927,11.358093,4.163814,-2.173186,0.262856
1752000,1.254562,0.447716,11.377247,4.698165,-2.478530,0.217055
1756000,1.063026,0.509965,11.214440,5.293585,-3.135018,0.568200
1760000,1.000776,0.509965,11.173739,5.721066,-3.852576,0.705604
1764000,0.974440,0.526724,10.943896,6.011142,-3.547232,1.117818
1768000,1.074997,0.495600,10.752359,5.385188,-2.356392,1.804841
1772000,0.988805,0.505177,10.568007,4.743967,-0.829675,2.308658
1776000,0.972046,0.557849,10.453085,3.583661,0.361165,3.010948
1780000,0.952892,0.603339,10.572795,2.499691,0.208493,3.972780
1784000,1.046266,0.567426,10.508151,1.629462,-0.188453,4.629269
1788000,1.225831,0.581791,10.443508,1.476791,-0.432728,5.209421
1792000,1.426944,0.608127,10.283096,0.835569,-0.921278,5.209421
1796000,1.611298,0.588974,10.189722,0.133279,-1.135018,5.041482
1800000,1.613692,0.524330,10.345345,-0.920156,-1.501431,4.522398
1804000,1.515530,0.474052,10.465055,-1.652980,-2.234255,4.171253
1808000,1.424550,0.533907,10.757148,-1.408705,-2.386927,3.896444
1812000,1.515530,0.512359,10.982203,-0.736950,-1.883110,4.018581
1816000,1.517924,0.459687,11.089942,-0.462140,-0.249522,4.354459
1820000,1.623269,0.478840,11.046846,0.102745,0.666508,4.278123
1824000,1.810017,0.447716,11.195287,0.637096,1.292463,4.018581
1828000,1.841141,0.442927,11.240777,0.972974,0.819180,3.010948
1832000,1.635240,0.457293,11.137826,1.659997,0.483302,2.415528
1836000,1.644817,0.447716,11.149797,2.209615,-0.280056,2.171253
1840000,1.640028,0.478840,11.190498,2.789768,-0.218988,1.820108
1844000,1.628057,0.536301,11.267113,3.568394,0.635974,1.774307
1848000,1.510741,0.533907,11.303026,3.889004,1.277195,1.514765
1852000,1.460463,0.574608,11.247959,4.377554,1.674142,1.652169
1856000,1.455675,0.584185,11.197681,4.866104,1.582539,1.804841
1860000,1.532289,0.675165,11.135432,5.201982,1.811547,1.636902
1864000,1.546654,0.588974,10.905589,5.537859,2.284829,1.820108
1868000,1.505953,0.612916,10.654198,5.354653,3.460402,1.713238
1872000,1.328782,0.514753,10.462662,4.560760,3.674142,1.697971
1876000,1.211466,0.593762,10.496181,3.553127,2.987119,2.049116
1880000,1.189918,0.565032,10.481815,2.667631,1.155058,2.705604
1884000,1.273715,0.675165,10.618284,1.690531,-0.432728,2.934612
1888000,1.374272,0.706290,10.797850,1.369921,-1.684637,3.163620
1892000,1.522712,0.735020,10.907983,1.629462,-2.417461,3.392627
1896000,1.580173,0.634463,10.946290,1.904272,-2.524331,3.591101
1900000,1.434127,0.622492,10.845734,1.705798,-1.867843,3.331558
1904000,1.343147,0.629675,10.864887,1.629462,-1.760972,3.301024
1908000,1.125275,0.596156,10.874464,1.827936,-2.188453,3.697971
1912000,1.120486,0.610521,10.884041,2.072211,-2.142652,4.033849
1916000,1.142034,0.656011,10.888829,2.667631,-1.791507,4.217055
1920000,1.347936,0.596156,10.991780,3.079844,-0.722805,4.659803
1924000,1.460463,0.636858,11.015722,3.858470,-0.157919,4.644536
1928000,1.628057,0.641646,10.884041,4.652363,-0.463263,4.491864
1932000,1.635240,0.574608,10.797850,4.911905,-1.150285,3.713238
1936000,1.470040,0.545878,10.625467,4.759233,-2.600667,3.178887
1940000,1.204283,0.512359,10.548853,4.362287,-3.470896,2.873543
1944000,1.077391,0.555455,10.639832,4.072211,-4.371659,3.438429
1948000,1.060631,0.562637,10.819398,4.072211,-4.310591,3.820108
1952000,1.201889,0.526724,10.850522,4.087478,-3.699904,4.339192
1956000,1.355118,0.507571,10.862494,3.736333,-2.127385,4.491864
1960000,1.496376,0.435745,10.905589,3.308852,-1.150285,4.201787
1964000,1.515530,0.404620,11.022904,2.759233,-1.272423,3.881177
1968000,1.438915,0.466869,11.128249,2.179081,-2.463263,3.392627
1972000,1.565808,0.447716,11.077971,2.087478,-3.409827,3.148352
1976000,1.412579,0.445322,11.049241,1.904272,-3.180820,2.995681
1980000,1.211466,0.349553,11.142614,1.522592,-3.058682,3.148352
1984000,1.089362,0.404620,11.293449,1.247783,-3.135018,3.423162
1988000,1.077391,0.395043,11.326968,1.201982,-3.379293,4.217055
1992000,1.268927,0.447716,11.405977,0.911905,-3.211354,4.430795
1996000,1.424550,0.438139,11.449073,1.064577,-2.249522,4.446063
