time_us,ax,ay,az,gx,gy,gz
0,0.921768,0.794875,10.843340,1.308852,1.216127,-1.218060
4000,0.828394,0.814029,10.694899,1.095111,1.933684,-1.126457
8000,0.754174,0.833182,10.848128,0.942440,1.429867,-0.668442
12000,0.790087,0.778116,11.066000,1.079844,0.513837,-0.302029
16000,0.840365,0.847547,11.125855,1.354653,0.147424,-0.240961
20000,0.854730,0.816423,11.056423,1.308852,0.010020,-0.149358
24000,1.003170,0.814029,11.032481,1.522592,0.208493,-0.134090
28000,1.007959,0.756568,10.963050,1.858470,-0.264789,-0.286762
32000,0.893037,0.842759,11.042058,1.385188,-1.073950,-0.531037
36000,0.840365,0.715866,11.056423,1.522592,-2.295324,-0.469968
40000,0.770933,0.770933,11.118672,1.507325,-3.135018,-0.393632
44000,0.797269,0.715866,11.147403,1.782134,-3.562499,-0.057755
48000,0.744597,0.694318,11.207258,2.041676,-3.501430,0.217055
52000,0.737414,0.723049,11.224017,2.347020,-2.493797,0.217055
56000,0.859518,0.742203,11.214440,2.957707,-1.745705,0.461329
60000,0.873884,0.653617,11.118672,3.140913,-1.379293,0.278123
64000,0.909797,0.749385,11.082760,3.156180,-0.936545,0.140719
68000,0.940921,0.663194,10.927136,2.835569,-1.104484,-0.042487
72000,0.770933,0.735020,10.927136,2.972974,-1.867843,-0.164625
76000,0.770933,0.754174,10.931925,2.881371,-2.234255,-0.011953
80000,0.701501,0.723049,10.874464,2.927173,-2.600667,0.415528
84000,0.883460,0.758962,10.876859,2.591295,-2.341125,0.507131
88000,0.969652,0.763750,10.826580,2.331753,-1.470896,0.644536
92000,0.835576,0.797269,10.649409,2.102745,-1.302957,0.644536
96000,0.766145,0.782904,10.654198,1.400455,-1.852576,1.133085
100000,0.900220,0.859518,10.692505,0.835569,-2.967079,1.545299
104000,1.091756,0.821211,10.656591,0.545493,-3.089217,1.484230
108000,1.163582,0.797269,10.773908,0.163814,-2.967079,1.362093
112000,1.259350,0.766145,10.836157,0.423356,-2.814408,1.163620
116000,1.285686,0.768539,10.879252,0.423356,-2.371660,0.904078
120000,1.216254,0.735020,10.785878,0.621829,-2.127385,0.827742
124000,1.244985,0.799663,10.888829,0.652363,-1.852576,0.644536
128000,1.235408,0.802058,10.939108,1.018775,-2.051049,0.308658
132000,1.393425,0.684742,10.922348,1.247783,-1.745705,0.125452
136000,1.357512,0.703895,10.874464,1.400455,-1.272423,-0.546304
140000,1.163582,0.763750,10.967838,1.339386,-0.600667,-0.744777
144000,1.101333,0.730232,10.919954,1.751600,-0.692270,-0.408900
148000,0.972046,0.744597,10.891224,1.950073,-0.493797,-0.408900
152000,1.019930,0.744597,10.690110,1.751600,-0.249522,-0.424167
156000,0.952892,0.790087,10.795456,1.385188,-0.524331,-0.134090
160000,1.007959,0.837971,10.749966,1.064577,-1.211354,-0.042487
164000,0.976834,0.713472,10.752359,0.805035,-1.608301,0.278123
168000,1.005565,0.708684,10.848128,0.667630,-2.051049,-0.088289
172000,0.873884,0.775721,10.931925,0.621829,-2.173186,0.247589
176000,0.919373,0.826000,11.022904,0.576027,-2.661736,0.262856
180000,0.950498,0.785298,11.066000,0.927172,-2.707537,0.384994
184000,0.902614,0.699107,10.989386,1.095111,-2.341125,0.400261
188000,0.842759,0.706290,11.006145,1.415722,-1.348759,0.232322
192000,0.840365,0.691924,10.934319,1.644730,-1.654102,0.537665
196000,0.969652,0.761356,10.912771,1.522592,-1.867843,0.720871
200000,1.063026,0.730232,10.726024,1.278317,-2.203721,0.629268
204000,0.979228,0.727837,10.766725,0.713432,-2.524331,0.354459
208000,0.873884,0.773327,10.860099,0.240150,-3.852576,0.598734
212000,0.998382,0.713472,10.939108,0.270684,-5.226621,0.430795
216000,1.106121,0.730232,10.984597,0.514959,-5.715171,0.491864
220000,1.187524,0.706290,11.001357,0.637096,-4.982347,0.186520
224000,1.199495,0.672771,10.929531,0.652363,-3.760972,-0.225693
228000,1.096544,0.720655,10.860099,0.927172,-3.425095,-0.485235
232000,1.036689,0.735020,10.862494,0.759233,-3.608301,-0.454701
236000,1.051055,0.675165,10.872070,0.377554,-3.883110,-0.592106
240000,1.122881,0.691924,10.817003,0.194348,-4.005247,-0.714243
244000,1.096544,0.660800,10.783484,-0.248400,-4.585400,-0.805846
248000,1.120486,0.605733,10.867282,-0.355270,-4.707537,-0.698976
252000,1.091756,0.610521,10.896012,-0.431606,-4.463263,-0.805846
256000,1.012747,0.629675,10.879252,-0.767484,-4.661736,-0.821113
260000,0.926556,0.603339,10.960655,-0.736950,-4.951812,-0.500503
264000,0.873884,0.598550,11.159374,-0.614812,-4.646469,-0.347831
268000,0.981623,0.648829,11.207258,-0.233133,-3.669369,-0.408900
272000,1.130063,0.553061,11.025299,0.041676,-1.516698,-0.378365
276000,1.041478,0.440533,10.963050,-0.355270,0.727577,-0.943251
280000,0.636858,0.560243,11.118672,-0.523209,1.063455,-0.912716
284000,0.418985,0.648829,11.453861,0.560760,-0.570133,0.201787
288000,0.658405,0.689530,11.444284,1.843203,-1.806774,1.178887
292000,1.005565,0.579397,11.135432,2.148547,-0.890743,1.255223
296000,1.151611,0.555455,10.927136,1.889004,0.162692,0.797207
300000,1.142034,0.536301,10.831368,1.812669,0.086356,0.705604
304000,1.089362,0.557849,10.757148,1.263050,-0.967079,0.155986
308000,1.096544,0.548272,10.678140,0.514959,-2.264789,0.064383
312000,1.084573,0.553061,10.711658,-0.156797,-2.463263,-0.363098
316000,1.223437,0.555455,10.881647,-0.217866,-2.280056,-0.469968
320000,1.254562,0.579397,10.852917,-0.263667,-1.318224,-0.683709
324000,1.146823,0.478840,10.831368,-0.675881,-0.860209,-1.233327
328000,1.106121,0.548272,10.912771,-1.011759,-1.486163,-1.095922
332000,1.055843,0.521936,11.046846,-1.194965,-2.921278,-1.218060
336000,1.142034,0.555455,11.075577,-1.042293,-3.730438,-1.294396
340000,1.096544,0.512359,10.953473,-0.965957,-3.974713,-1.355464
344000,1.240196,0.598550,11.149797,-0.828552,-4.005247,-1.828747
348000,1.319205,0.509965,11.319786,-0.202598,-3.593034,-2.149358
352000,1.055843,0.557849,11.343728,0.789768,-3.684637,-2.103556
356000,1.058237,0.555455,11.324574,1.705798,-3.928911,-1.889816
360000,1.067814,0.519542,11.216835,2.560760,-3.516698,-1.905083
364000,1.019930,0.433351,11.013328,2.713432,-3.654102,-2.057755
368000,0.926556,0.383072,10.855310,2.484425,-3.822041,-1.996686
372000,0.876278,0.368707,10.896012,1.797401,-5.272423,-1.828747
376000,0.943315,0.318429,11.061212,1.675264,-6.554865,-1.813480
380000,0.993594,0.330400,11.121067,1.675264,-7.302957,-1.630274
384000,0.952892,0.311246,11.094730,1.705798,-6.936545,-2.073022
388000,0.957681,0.256180,11.235989,1.904272,-5.883110,-1.981419
392000,0.998382,0.213084,11.166556,2.041676,-4.402194,-1.798213
396000,0.967257,0.100556,11.209652,2.133279,-3.409827,-1.905083
400000,1.043872,0.179565,10.986992,1.919539,-2.249522,-2.240961
404000,0.921768,0.107739,11.020511,1.492058,-1.745705,-2.424167
408000,0.972046,0.081403,11.109096,1.018775,-2.295324,-2.347831
412000,0.995988,0.095768,11.276690,1.369921,-2.570133,-2.607373
416000,0.902614,0.000000,11.326968,1.430989,-2.585400,-2.408900
420000,0.933739,-0.038307,11.271901,1.782134,-2.600667,-2.317297
424000,0.916979,-0.153229,11.197681,1.843203,-2.615934,-1.889816
428000,0.895431,-0.076614,11.235989,1.690531,-2.860209,-2.118823
432000,0.866701,-0.232238,11.195287,1.415722,-3.455629,-1.782945
436000,0.842759,-0.339977,11.252748,1.018775,-3.974713,-1.599739
440000,0.778116,-0.337582,11.259931,0.652363,-4.509064,-1.721877
444000,0.857124,-0.478840,11.465832,0.759233,-5.623568,-1.645541
448000,0.816423,-0.493206,11.762712,1.003508,-5.470896,-1.340197
452000,0.708684,-0.495600,11.757924,1.659997,-5.364026,-0.912716
456000,0.806846,-0.545878,11.877635,2.194348,-5.531965,-0.668442
460000,0.969652,-0.608127,11.887212,3.247783,-5.180820,-0.393632
464000,1.024718,-0.699107,12.002133,4.087478,-3.959446,-0.408900
468000,1.005565,-0.751779,11.822568,4.728699,-2.860209,-0.347831
472000,1.051055,-0.873884,11.729194,4.820302,-2.295324,-0.286762
476000,1.041478,-0.991199,11.686098,4.972974,-2.005247,-0.561571
480000,1.187524,-0.962469,11.659762,4.560760,-1.715171,-0.439434
484000,1.130063,-1.022324,11.767501,4.453890,-1.867843,-0.531037
488000,1.118092,-1.091756,11.796232,4.820302,-2.524331,-0.439434
492000,1.168370,-1.096544,11.860875,4.988241,-2.509064,-0.454701
496000,1.137246,-1.142034,11.892000,5.827936,-2.463263,-0.347831
500000,1.264138,-1.192312,11.939884,6.179081,-2.417461,-0.744777
504000,1.376666,-1.144428,12.042834,7.217249,-2.554866,-1.202793
508000,1.532289,-1.221043,12.119449,8.316485,-2.386927,-1.905083
512000,1.565808,-1.290475,11.982980,9.201982,-2.035782,-3.233327
516000,1.398214,-1.333570,11.719617,10.041677,-1.409827,-3.660808
520000,1.170765,-1.228225,11.623849,10.453890,-1.608301,-4.027220
524000,0.859518,-1.163582,11.552023,10.728700,-2.310591,-3.752411
528000,0.665588,-1.197101,11.530476,10.881371,-3.867843,-3.111190
532000,0.677559,-1.125275,11.463438,10.942440,-4.814407,-1.920350
536000,0.684742,-1.132457,11.379641,11.766868,-4.280056,-1.324930
540000,0.794875,-1.177947,11.185710,11.980607,-1.806774,-0.607373
544000,0.593762,-1.223437,10.941502,11.476790,0.025287,0.278123
548000,0.337582,-1.271321,10.654198,10.453890,0.910783,1.423162
552000,0.002394,-1.379060,10.500969,8.805036,0.193226,2.552932
556000,-0.134075,-1.453280,10.515334,6.743966,-1.944179,3.972780
560000,0.040701,-1.508347,10.668563,4.972974,-4.127385,5.423162
564000,0.146046,-1.453280,10.965444,3.659997,-5.257155,6.522398
568000,0.284910,-1.508347,11.334151,3.461524,-5.516697,7.468963
572000,0.395043,-1.546654,11.686098,3.751600,-5.211354,8.262856
576000,0.557849,-1.604115,12.138602,5.049310,-5.699903,8.858275
580000,0.957681,-1.656788,12.519280,7.354653,-6.478529,8.873543
584000,1.486799,-1.711854,12.852075,10.652364,-6.554865,7.468963
588000,1.994370,-1.735796,12.976573,14.499691,-5.409827,5.285757
592000,2.130840,-1.695095,12.756307,18.453890,-4.020514,3.056749
596000,2.092532,-1.750161,12.301409,21.278318,-3.135018,1.285757
600000,1.984793,-1.742979,11.590330,23.049311,-3.348759,-0.454701
604000,1.812411,-1.752556,10.900801,23.095112,-4.234255,-1.431800
608000,1.745373,-1.707066,10.216059,21.095112,-6.218987,-2.225693
612000,1.599327,-1.745373,9.916783,18.392822,-8.585401,-3.279129
616000,1.323994,-1.651999,10.108319,15.919538,-10.447996,-3.065388
620000,1.283292,-1.556231,10.400413,14.484425,-10.890744,-2.576838
624000,1.398214,-1.549049,10.515334,13.659997,-8.738072,-2.073022
628000,1.599327,-1.517924,10.388441,13.201982,-4.280056,-2.454701
632000,1.613692,-1.558625,10.359711,12.637096,0.773379,-3.294396
636000,1.309628,-1.570596,10.280702,11.537860,4.040555,-3.752411
640000,1.074997,-1.498770,10.369287,10.881371,5.170325,-3.889816
644000,0.969652,-1.400608,10.450690,10.438622,6.544371,-3.920350
648000,0.737414,-1.405396,10.240001,9.721066,9.048187,-3.889816
652000,0.390255,-1.376666,10.129868,8.789768,12.269562,-3.126457
656000,0.088585,-1.388637,10.101137,7.614195,14.651241,-2.088289
660000,-0.122104,-1.379060,10.345345,6.347020,15.460402,-0.897449
664000,-0.098162,-1.359907,10.412383,5.522593,15.887882,0.369726
668000,-0.124498,-1.350330,10.395624,5.049310,15.582539,1.041482
672000,0.055067,-1.252167,10.618284,5.003509,15.475668,1.484230
676000,0.292093,-1.328782,10.778696,5.507325,15.231394,1.270490
680000,0.560243,-1.309628,11.145009,6.927173,12.590172,0.675070
684000,0.900220,-1.125275,11.456255,9.553126,6.712310,-0.118823
688000,1.290475,-1.036689,11.607090,12.545493,-1.699904,-1.615006
692000,1.644817,-1.108515,11.616667,14.576027,-11.165553,-3.340197
696000,2.080561,-1.060631,11.633426,17.018776,-19.425095,-6.317297
700000,2.319981,-0.986411,11.377247,19.156181,-26.356392,-9.767678
704000,2.221819,-0.984017,10.977415,19.980608,-32.631203,-12.653174
708000,1.924938,-0.888249,10.704475,19.507326,-39.012882,-15.095922
712000,1.788469,-0.799663,10.606314,18.759233,-44.722805,-17.233326
716000,1.814805,-0.768539,10.247183,17.415722,-47.196087,-19.141724
720000,1.584962,-0.677559,9.914390,15.049310,-46.203720,-20.622639
724000,1.113304,-0.615310,9.725247,11.644730,-43.089218,-20.897449
728000,0.493206,-0.488417,9.859323,8.957706,-38.600666,-20.149357
732000,0.023942,-0.385466,10.129868,6.423356,-34.570133,-18.103556
736000,-0.050278,-0.229843,10.560823,5.232516,-30.081583,-15.508137
740000,0.256180,-0.105345,10.838552,4.408089,-24.310591,-13.492869
744000,0.711078,-0.033519,10.879252,3.919539,-15.730438,-12.363098
748000,0.933739,-0.028730,10.852917,3.247783,-5.745705,-12.088289
752000,0.835576,-0.067038,10.989386,2.591295,3.948951,-12.210426
756000,0.632069,0.043096,11.006145,2.026409,10.956584,-12.103557
760000,0.775721,0.131681,11.099519,1.568394,16.697042,-12.469969
764000,0.852336,0.265756,10.958261,0.957707,22.254293,-12.683709
768000,0.960075,0.375890,10.977415,0.743966,27.490936,-13.202793
772000,1.122881,0.335188,11.188105,2.056943,32.697041,-13.630274
776000,1.230620,0.407014,11.164163,3.079844,35.765743,-14.042488
780000,0.653617,0.694318,10.314221,4.377554,37.750477,-14.775312
784000,0.311246,0.512359,10.354922,0.026409,28.086355,-14.286762
788000,0.715866,0.689530,10.678140,-0.660614,16.941317,-14.164625
792000,1.304840,0.672771,10.587160,-1.103362,4.513837,-16.424166
796000,1.577779,0.663194,10.237606,-1.943056,-1.638835,-19.263861
800000,1.532289,0.636858,10.012551,-3.332370,-7.944179,-21.111189
804000,1.405396,0.696713,10.050858,-5.393438,-14.310591,-22.912716
808000,1.331176,0.869095,10.527305,-6.370538,-20.295324,-24.714243
812000,1.233014,1.007959,10.704475,-7.149163,-27.089216,-26.317295
816000,1.194707,1.098939,10.953473,-7.423973,-33.974712,-27.905083
820000,1.182736,1.335965,11.281479,-6.767485,-38.234257,-29.324930
824000,1.237802,1.386243,11.202470,-5.851454,-38.203720,-30.103556
828000,1.079785,1.470040,11.097125,-4.981225,-35.012882,-30.989052
832000,0.636858,1.604115,10.929531,-4.355270,-31.791508,-31.553938
836000,0.411803,1.685518,10.838552,-4.416339,-28.386927,-30.973785
840000,0.301669,1.934515,10.654198,-4.981225,-24.096851,-30.500502
844000,0.282516,2.063802,10.460267,-5.912522,-17.989981,-30.195158
848000,0.131681,2.334347,10.232818,-6.965958,-10.707538,-28.805845
852000,0.225055,2.430115,9.648633,-8.813286,-2.722805,-26.989052
856000,0.258574,2.521094,9.129091,-11.408706,4.071089,-25.447067
860000,0.143652,2.655170,8.652645,-15.378171,8.513836,-24.042486
864000,-0.090980,2.779668,8.413225,-20.446873,9.063455,-22.225693
868000,-0.146046,2.937685,8.714894,-24.645346,6.330631,-20.073021
872000,0.196325,3.033453,8.949526,-27.927788,3.613073,-18.271494
876000,0.924162,3.040636,9.382876,-29.759850,3.353531,-17.599739
880000,1.367089,3.098097,9.631873,-30.859085,4.254295,-17.767677
884000,1.343147,3.330335,10.029311,-31.088093,3.613073,-17.935617
888000,1.970428,3.315969,10.137050,-31.744583,1.399333,-18.576838
892000,2.896984,3.162740,10.036493,-32.156796,-1.425095,-21.477602
896000,3.507505,3.148375,10.156203,-33.286568,-4.478529,-26.714243
900000,3.229778,3.277662,10.352529,-33.393436,-8.325858,-31.630274
904000,2.353500,3.464410,10.472239,-32.706413,-12.814408,-34.531036
908000,1.663970,3.562572,10.474632,-31.439240,-16.844942,-35.218060
912000,1.362301,3.677494,10.568007,-30.080460,-20.020515,-34.973785
916000,1.290475,3.739743,10.579977,-29.332367,-20.799141,-34.240959
920000,1.381454,3.794810,10.453085,-29.561375,-20.951813,-33.981419
924000,1.556231,3.744531,10.405201,-30.675880,-21.028149,-34.103554
928000,1.711854,3.770868,10.220847,-32.172062,-20.524332,-34.469967
932000,1.697489,3.797204,10.460267,-33.866718,-19.501431,-35.355465
936000,1.388637,3.699042,10.718841,-34.446873,-18.325859,-35.828747
940000,1.187524,3.861847,11.130644,-34.446873,-17.669371,-35.508137
944000,1.048660,3.912126,11.276690,-33.714046,-16.631203,-34.851646
948000,0.940921,3.902549,11.451467,-33.164429,-15.119752,-34.073021
952000,0.751779,3.840300,11.671733,-32.431606,-13.501431,-32.683708
956000,0.790087,3.926491,11.959038,-31.790382,-12.371660,-31.324930
960000,0.988805,3.919308,12.332533,-30.996490,-10.799141,-30.546303
964000,1.048660,4.007894,12.698846,-28.874355,-7.730438,-29.630274
968000,1.063026,4.118027,12.916718,-25.805651,-3.699904,-28.210426
972000,1.254562,4.055778,12.832921,-22.523209,1.139791,-27.095922
976000,1.731008,4.027047,12.449849,-20.034658,5.887883,-26.790579
980000,2.154782,3.885789,12.016499,-18.645346,8.819180,-27.370731
984000,2.403779,3.792415,11.877635,-18.462139,9.002386,-29.095922
988000,2.671929,3.689465,12.131420,-18.385803,6.086356,-31.462334
992000,2.726996,3.787627,12.461820,-16.965956,2.116890,-33.844013
996000,2.715025,3.732560,12.890382,-14.752217,-0.554866,-36.240959
1000000,2.351106,3.643975,13.144167,-11.622446,-2.646469,-37.233326
1004000,1.857901,3.634398,13.067553,-8.217866,-4.127385,-37.553936
1008000,1.391031,3.598485,12.904747,-5.042294,-6.142652,-37.492870
1012000,1.256956,3.679888,12.746730,-2.065194,-10.341125,-36.836380
1016000,1.300052,3.466804,12.548011,0.133279,-13.791507,-36.302029
1020000,1.280898,3.428497,12.064383,2.972974,-15.287690,-36.179890
1024000,1.079785,3.383007,11.523293,2.820302,-14.264790,-35.966152
1028000,0.691924,3.191471,11.207258,2.087478,-13.150286,-34.912716
1032000,0.464475,3.145981,11.288661,2.011142,-14.081584,-32.866913
1036000,0.435745,3.153164,11.243171,1.705798,-13.944179,-31.401266
1040000,0.387861,2.913743,10.886436,1.293585,-12.692270,-29.431799
1044000,0.385466,2.868254,10.663774,0.026409,-11.455629,-28.103556
1048000,0.215478,2.822764,10.556035,-0.630080,-10.524332,-25.660807
1052000,0.217872,2.746149,10.893618,-0.920156,-10.310591,-23.538670
1056000,0.359130,2.693477,11.044453,-0.355270,-9.715171,-21.691341
1060000,0.495600,2.549825,11.164163,0.698165,-7.684637,-20.256227
1064000,0.782904,2.413355,11.250354,1.736333,-4.463263,-19.111189
1068000,0.852336,2.315193,11.252748,2.835569,-1.302957,-18.088287
1072000,0.790087,2.370260,11.473015,5.049310,0.116890,-17.218060
1076000,0.746991,2.274492,11.439496,7.507325,0.254295,-16.256227
1080000,1.039083,2.078167,11.147403,10.270684,-2.188453,-14.851648
1084000,1.194707,2.442086,10.512939,11.171448,-5.928911,-14.576838
1088000,1.491588,1.848324,10.371682,11.751600,-9.883110,-14.821114
1092000,1.455675,1.831564,9.753978,11.659997,-15.302958,-15.294396
1096000,1.362301,2.082955,9.469068,11.751600,-21.501431,-15.309663
1100000,0.960075,1.932121,9.157822,9.995874,-26.142653,-14.821114
1104000,0.792481,1.812411,9.100361,7.324119,-29.562500,-13.859282
1108000,0.876278,1.750161,9.466674,5.659997,-31.425095,-12.882182
1112000,1.098939,1.771709,9.672575,5.919539,-31.012880,-11.569205
1116000,1.103727,1.778892,9.579201,5.339386,-27.974712,-10.454701
1120000,1.058237,1.714248,9.495404,4.041677,-23.974712,-9.538671
1124000,1.041478,1.604115,9.631873,2.972974,-20.127384,-8.653174
1128000,0.883460,1.613692,9.557653,2.209615,-17.165552,-7.874548
1132000,0.644040,1.549049,9.703699,0.927172,-15.226622,-6.439434
1136000,0.835576,1.532289,9.648633,-0.202598,-13.699904,-5.508136
1140000,1.031901,1.285686,9.730036,-1.622446,-11.257156,-4.821113
1144000,1.051055,1.386243,9.586384,-2.110996,-8.677003,-4.149358
1148000,0.706290,1.376666,9.275137,-4.630079,-6.890743,-2.851648
1152000,0.488417,1.261744,9.342175,-6.630079,-5.898377,-0.927984
1156000,0.301669,1.259350,9.469068,-8.767485,-6.386927,1.102551
1160000,0.395043,1.278504,9.574412,-10.248401,-6.112117,3.026215
1164000,0.440533,1.113304,9.904813,-11.408706,-5.394560,5.209421
1168000,0.478840,1.122881,10.309433,-12.110995,-5.028148,7.316291
1172000,0.756568,1.106121,11.128249,-11.362904,-6.295323,8.797207
1176000,1.553837,1.072602,11.884817,-8.416339,-6.264789,8.858275
1180000,2.329558,1.065420,12.100295,-4.691149,-4.234255,7.163620
1184000,2.652776,0.955287,12.306197,-0.507942,-1.745705,4.995681
1188000,2.808398,0.859518,12.119449,3.400455,0.513837,2.201787
1192000,2.612074,0.878672,11.590330,5.659997,1.887883,-0.088289
1196000,2.272097,0.871489,11.358093,7.064577,1.857348,-1.905083
1200000,1.857901,0.928950,11.077971,7.537859,0.635974,-3.156991
1204000,1.623269,1.053449,10.852917,7.522593,-0.890743,-3.141724
1208000,1.453280,0.974440,10.912771,7.049310,-2.127385,-2.515770
1212000,1.381454,1.012747,10.998962,7.232516,-3.257156,-1.462335
1216000,1.575385,1.074997,10.805033,6.514959,-3.623568,-0.149358
1220000,1.776498,0.991199,10.503363,5.598928,-3.012881,0.033849
1224000,1.855506,0.921768,10.462662,3.705798,-2.799140,-0.332564
1228000,1.774103,0.873884,10.572795,2.805035,-2.478530,-0.698976
1232000,1.663970,0.900220,10.690110,2.148547,-1.852576,-1.050121
1236000,1.465251,0.933739,10.594342,1.705798,-0.997614,-0.805846
1240000,1.285686,0.890643,10.630256,1.659997,-1.028148,0.003314
1244000,1.216254,0.847547,10.515334,1.018775,-1.440362,0.751406
1248000,0.979228,0.840365,10.405201,0.148546,-2.051049,1.514765
1252000,0.706290,0.847547,10.678140,-0.965957,-3.699904,2.705604
1256000,0.735020,0.849942,10.821792,-1.729316,-5.531965,3.850643
1260000,0.845153,0.763750,11.240777,-0.843820,-6.280056,5.270490
1264000,0.938527,0.677559,11.207258,-0.538476,-3.684637,6.247589
1268000,0.833182,0.718261,11.123461,0.576027,-2.417461,7.423162
1272000,0.988805,0.715866,11.030087,1.247783,-1.715171,7.926979
1276000,1.252167,0.651223,11.013328,1.995875,-1.470896,8.033848
1280000,1.515530,0.620098,11.025299,2.621829,-1.654102,7.270490
1284000,1.750161,0.543484,10.730812,2.652363,-1.043415,6.491864
1288000,1.738190,0.598550,10.730812,2.972974,-0.447995,5.774307
1292000,1.742979,0.665588,10.699687,3.324119,0.742844,5.423162
1296000,1.723825,0.612916,10.706870,4.041677,1.032921,5.407895
1300000,1.742979,0.557849,10.601525,4.148547,1.185592,5.453696
1304000,1.903390,0.588974,10.544065,3.721066,1.093989,4.934612
1308000,2.008735,0.581791,10.757148,3.537859,-0.020514,4.384994
1312000,1.783680,0.584185,10.960655,4.240149,-2.280056,3.804841
1316000,1.766921,0.600945,11.063606,4.682898,-3.913644,3.926979
1320000,1.850718,0.600945,10.965444,5.644730,-4.188453,3.820108
1324000,1.821988,0.447716,10.814610,6.026409,-2.127385,3.316291
1328000,1.556231,0.603339,10.783484,5.553127,-0.005247,3.545299
1332000,1.369483,0.588974,10.692505,4.835569,1.170325,3.652169
1336000,1.197101,0.634463,10.438720,4.148547,0.300096,4.522398
1340000,1.039083,0.691924,10.407595,2.606562,-0.585400,5.453696
1344000,1.036689,0.739808,10.340557,1.430989,-1.501431,6.476597
1348000,0.995988,0.749385,10.572795,0.026409,-2.203721,7.331559
1352000,1.125275,0.766145,10.869676,-0.904888,-2.112118,8.186520
1356000,1.350330,0.718261,11.204864,-0.767484,-2.234255,8.537665
1360000,1.503559,0.701501,11.214440,-0.065194,-1.684637,8.995680
1364000,1.774103,0.639252,11.178528,0.743966,-0.157919,8.873543
1368000,1.867477,0.617704,10.931925,0.576027,0.910783,8.400260
1372000,1.719037,0.562637,10.922348,0.499691,1.185592,7.911711
1376000,1.587356,0.591368,10.994174,0.102745,-0.157919,7.850643
1380000,1.611298,0.574608,11.190498,-0.156797,-1.318224,7.575834
1384000,1.616086,0.505177,11.396400,-0.233133,-2.341125,7.362093
1388000,1.663970,0.457293,11.870452,1.217249,-3.440362,7.713238
1392000,1.989582,0.471658,12.105083,3.385188,-3.425095,7.743772
1396000,2.305616,0.447716,11.937490,5.827936,-1.913644,6.751406
1400000,2.341529,0.366313,11.683704,7.247783,0.880249,5.453696
1404000,2.152387,0.344765,11.274296,8.209616,2.437501,3.988047
1408000,1.872266,0.395043,11.154586,8.881371,2.101623,2.980413
1412000,1.663970,0.447716,10.986992,9.369921,0.910783,2.736139
1416000,1.467646,0.428562,10.907983,9.308852,-0.600667,2.766673
1420000,1.496376,0.483629,10.951078,9.476790,-1.516698,3.224688
1424000,1.620875,0.497994,10.857705,9.522593,-1.364026,3.499497
1428000,1.711854,0.555455,10.663774,9.171448,-0.020514,3.362093
1432000,1.666364,0.550666,10.431537,8.514958,1.322997,3.575833
1436000,1.599327,0.608127,10.220847,7.690531,2.819180,3.759039
1440000,1.446098,0.588974,9.998186,6.637096,2.758112,4.201787
1444000,1.414973,0.670376,9.883265,5.659997,1.948951,4.827742
1448000,1.553837,0.565032,9.967062,4.499691,0.666508,5.087284
1452000,1.623269,0.445322,10.211270,3.278317,-1.012881,5.072017
1456000,1.877054,0.483629,10.606314,2.576027,-2.661736,4.720871
1460000,1.960851,0.500388,10.977415,3.125646,-3.944179,4.262856
1464000,2.018312,0.490811,11.106702,3.827936,-4.600667,3.667437
1468000,1.905785,0.356736,11.156980,4.576027,-4.173186,3.102551
1472000,1.848324,0.294487,11.281479,4.896638,-3.608301,2.491864
1476000,1.810017,0.260968,11.269507,5.339386,-3.043415,1.896444
1480000,1.867477,0.344765,11.286267,5.934806,-2.020514,1.117818
1484000,1.826776,0.301669,11.137826,6.118012,-0.432728,0.461329
1488000,1.845930,0.268151,10.898406,5.705799,1.658875,-0.378365
1492000,1.716643,0.296881,10.721235,4.957707,2.590173,-0.775312
1496000,1.551443,0.280122,10.512939,3.843203,2.574905,-0.927984
1500000,1.340753,0.284910,10.512939,2.453890,2.055821,-0.821113
1504000,1.077391,0.260968,10.524911,1.232516,0.910783,-0.500503
1508000,0.938527,0.332794,10.759542,0.484424,-0.493797,0.308658
1512000,1.096544,0.371101,11.010934,0.453890,-0.173186,1.056749
1516000,1.235408,0.438139,11.121067,0.835569,0.834447,1.423162
1520000,1.271321,0.450110,11.152191,1.324119,1.872615,1.652169
1524000,1.173159,0.414197,11.291056,1.904272,2.635974,1.942245
1528000,1.194707,0.426168,11.298238,2.637096,2.513837,1.911711
1532000,1.441309,0.462081,11.307815,3.415722,2.086356,1.865910
1536000,1.503559,0.488417,11.219229,3.934806,1.689409,1.591100
1540000,1.395820,0.440533,11.075577,4.484425,1.292463,1.591100
1544000,1.434127,0.514753,10.951078,4.209615,1.002386,1.911711
1548000,1.374272,0.550666,10.881647,4.179081,-0.295324,2.446062
1552000,1.414973,0.577003,10.910378,4.637096,-1.379293,3.010948
1556000,1.525106,0.548272,10.828975,4.026409,-2.218988,3.392627
1560000,1.707066,0.560243,10.805033,3.873737,-2.524331,3.423162
1564000,1.778892,0.588974,10.778696,3.782134,-1.654102,3.575833
1568000,1.769315,0.560243,10.654198,3.751600,-0.921278,3.239955
1572000,1.726219,0.507571,10.601525,3.476791,-0.386927,3.316291
1576000,1.774103,0.612916,10.591949,3.461524,-0.493797,3.453696
1580000,1.826776,0.593762,10.711658,3.598928,-0.524331,3.285757
1584000,1.908179,0.574608,10.692505,3.873737,-0.157919,3.148352
1588000,2.085350,0.615310,10.728417,4.011142,0.315363,2.797207
1592000,1.996764,0.579397,10.596737,4.209615,0.376432,2.461329
1596000,2.020706,0.524330,10.692505,3.644730,-0.447995,2.217055
1600000,2.164358,0.531513,10.596737,2.927173,-0.707537,1.545299
1604000,2.197877,0.565032,10.730812,2.469157,-1.028148,0.720871
1608000,2.214637,0.524330,10.670957,1.889004,-0.280056,-0.195159
1612000,2.037466,0.584185,10.699687,1.522592,0.483302,-0.637907
1616000,2.047042,0.567426,10.812215,1.003508,0.498570,-1.065388
1620000,1.889025,0.691924,10.862494,0.392821,-0.280056,-1.263861
1624000,1.759738,0.675165,11.056423,0.118012,-1.745705,-1.279129
1628000,1.740585,0.675165,11.056423,0.041676,-4.020514,-1.187526
1632000,1.754950,0.663194,11.235989,-0.187331,-5.028148,-1.248594
1636000,1.735796,0.612916,11.355699,0.087478,-5.089217,-1.676075
1640000,1.745373,0.648829,11.463438,0.728699,-4.218988,-1.935617
1644000,1.663970,0.744597,11.473015,1.415722,-3.562499,-2.073022
1648000,1.613692,0.699107,11.549629,2.072211,-2.951812,-2.210426
1652000,1.431733,0.761356,11.607090,2.881371,-2.524331,-2.302029
1656000,1.362301,0.770933,11.575965,3.690531,-2.738072,-2.027220
1660000,1.276109,0.780510,11.631032,4.499691,-2.249522,-2.027220
1664000,1.271321,0.897826,11.513716,5.369921,-2.005247,-1.523403
1668000,1.225831,0.763750,11.401189,5.995875,-1.623568,-1.279129
1672000,1.309628,0.797269,11.487380,6.682898,-1.211354,-0.714243
1676000,1.261744,0.869095,11.322180,7.369921,-0.783873,-0.164625
1680000,1.242591,0.840365,11.173739,7.736333,0.101623,-0.073022
1684000,1.371878,0.758962,10.915166,7.782134,0.971852,0.110184
1688000,1.405396,0.847547,10.838552,7.583661,2.086356,0.278123
1692000,1.379060,0.816423,10.711658,7.034043,2.758112,0.873543
1696000,1.261744,0.797269,10.553641,6.255417,2.055821,1.209421
1700000,1.426944,0.756568,10.577583,5.446257,0.758111,1.789574
1704000,1.534683,0.751779,10.560823,4.621829,-0.005247,2.033848
1708000,1.577779,0.746991,10.668563,4.072211,-0.615934,1.621635
1712000,1.450886,0.782904,10.797850,4.011142,-1.684637,2.018581
1716000,1.455675,0.732626,10.876859,4.056943,-2.432728,2.430795
1720000,1.651999,0.675165,10.884041,4.713432,-2.264789,2.415528
1724000,1.860295,0.687136,10.836157,4.713432,-2.188453,2.049116
1728000,1.908179,0.679953,10.893618,4.728699,-2.325858,1.117818
1732000,1.807622,0.667982,11.068395,4.957707,-2.539598,0.201787
1736000,1.568202,0.612916,10.843340,5.232516,-2.967079,-0.118823
1740000,1.312023,0.593762,10.891224,5.217249,-3.379293,0.323925
1744000,1.276109,0.584185,11.116279,5.904272,-4.463263,0.904078
1748000,1.510741,0.533907,11.238382,6.850837,-4.860209,0.873543
1752000,1.704672,0.531513,11.188105,7.446257,-4.402194,0.461329
1756000,1.862689,0.404620,11.008539,7.568394,-2.921278,0.033849
1760000,1.604115,0.392649,10.850522,7.354653,-2.447995,-0.592106
1764000,1.388637,0.478840,10.740389,6.927173,-2.631201,-0.057755
1768000,1.218649,0.428562,10.742783,6.423356,-3.272423,0.247589
1772000,1.247379,0.368707,10.697293,5.827936,-3.333492,1.072016
1776000,1.230620,0.387861,10.649409,5.201982,-2.936545,1.499497
1780000,1.292869,0.402226,10.716447,4.530226,-2.524331,2.003314
1784000,1.292869,0.442927,10.740389,4.118012,-2.447995,2.629268
1788000,1.266533,0.471658,10.596737,3.140913,-2.600667,3.331558
1792000,1.249773,0.430956,10.637438,2.255417,-3.012881,3.789574
1796000,1.340753,0.445322,10.627861,1.919539,-3.547232,4.140719
1800000,1.364695,0.411803,10.673351,1.247783,-4.417461,4.430795
1804000,1.434127,0.486023,10.757148,1.369921,-4.157919,4.690337
1808000,1.467646,0.488417,10.754754,1.751600,-3.608301,4.781940
1812000,1.690306,0.344765,10.704475,1.690531,-2.478530,4.949879
1816000,1.987187,0.361524,10.615891,1.461524,-1.379293,4.690337
1820000,2.245761,0.311246,10.666168,1.354653,-0.890743,3.346826
1824000,2.044648,0.316035,10.740389,0.988241,-1.058682,2.125452
1828000,1.860295,0.435745,10.704475,0.835569,-2.539598,2.003314
1832000,1.733402,0.426168,10.800244,0.957707,-3.470896,1.728505
1836000,1.860295,0.438139,10.848128,0.988241,-3.608301,1.484230
1840000,1.855506,0.433351,10.924743,1.156180,-4.020514,1.407894
1844000,1.903390,0.423774,11.123461,1.705798,-4.325858,0.736139
1848000,2.003947,0.390255,10.991780,2.240149,-4.768606,0.110184
1852000,2.001553,0.416591,10.996569,2.698165,-3.806774,-0.546304
1856000,1.948880,0.383072,10.903194,2.866104,-2.677003,-1.309663
1860000,1.769315,0.469264,10.838552,3.018775,-1.822041,-1.706609
1864000,1.735796,0.531513,10.623073,2.713432,-1.089217,-1.889816
1868000,1.654393,0.524330,10.570400,2.759233,-0.661736,-2.073022
1872000,1.601721,0.560243,10.479421,2.484425,-0.661736,-2.011953
1876000,1.678335,0.493206,10.436325,1.690531,-0.860209,-2.042487
1880000,1.699883,0.399832,10.426748,0.789768,-0.844942,-2.286762
1884000,1.537078,0.452504,10.620679,-0.187331,-1.577766,-2.332564
1888000,1.570596,0.536301,10.850522,-0.340003,-2.112118,-2.164625
1892000,1.417367,0.574608,11.042058,0.194348,-1.867843,-2.469968
1896000,1.367089,0.574608,10.963050,0.270684,-0.982347,-2.271495
1900000,1.264138,0.598550,10.946290,0.606562,-0.539598,-2.011953
1904000,1.225831,0.579397,10.857705,0.942440,0.010020,-1.630274
1908000,1.168370,0.622492,10.817003,0.728699,0.574905,-1.126457
1912000,1.103727,0.617704,10.752359,0.637096,0.452768,-0.805846
1916000,1.182736,0.641646,10.654198,0.423356,0.468035,-0.485235
1920000,1.177947,0.617704,10.666168,0.072211,1.277195,0.018581
1924000,1.149217,0.593762,10.716447,-0.233133,1.307730,0.125452
1928000,1.288081,0.629675,10.795456,-0.202598,1.200860,0.583467
1932000,1.448492,0.600945,10.881647,0.056943,0.803913,0.537665
1936000,1.513135,0.615310,11.008539,0.194348,0.788646,0.079650
1940000,1.438915,0.660800,10.941502,0.911905,1.322997,-0.210426
1944000,1.335965,0.569820,10.836157,1.232516,1.842081,0.003314
1948000,1.259350,0.620098,10.752359,1.827936,2.880249,0.049116
1952000,1.300052,0.586579,10.632649,1.705798,3.536737,0.140719
1956000,1.407791,0.593762,10.649409,1.904272,3.063455,0.384994
1960000,1.424550,0.620098,10.522516,1.659997,2.361165,0.659803
1964000,1.412579,0.593762,10.553641,1.049310,1.063455,0.491864
1968000,1.261744,0.603339,10.551247,0.209615,-1.028148,0.690337
1972000,1.307234,0.634463,10.565612,-0.187331,-3.302957,1.178887
1976000,1.316811,0.622492,10.611102,-0.065194,-4.142652,1.499497
1980000,1.417367,0.569820,10.558430,-0.553744,-3.669369,1.896444
1984000,1.462857,0.531513,10.654198,-1.118629,-2.967079,2.033848
1988000,1.510741,0.560243,10.850522,-1.378171,-2.799140,1.911711
1992000,1.460463,0.624887,10.996569,-1.607178,-3.379293,2.293390
1996000,1.529895,0.617704,11.104307,-1.378171,-3.348759,2.369726
